Trial_index;TrialID;Block;Conditions;Stimulus_type;Number_of_Bars;rt;Query_color;color_sequence;position_sequence;heights;key_press;Correct_Position;response_position;subject_id;correct;avg_frame_time;center_x;center_y;trial_type;time_elapsed;TrialType;timeMs;timeMin;score;reward;date
1;1;1;noStructureExp;bars;2;7216;pink;saddlebrown,pink;300,39;300,33;32;2;1;bvoobt12gur23nj;false;166.666;390;195;psychophysics;278621;practice_trials;NULL;NULL;NULL;NULL;13_11_2020_15_15_50
1;1;1;noStructureExp;query;2;2947;pink;saddlebrown,pink;300,39;300,33;49;2;1;bvoobt12gur23nj;false;166.667;390;195;psychophysics;282572;practice_trial;NULL;NULL;NULL;NULL;13_11_2020_15_15_50
2;5;1;noStructureExp;bars;6;10523;saddlebrown;purple,green,saddlebrown,pink,yellow,white;120,570,480,210,300,390;150,180,210,240,270,300;32;3;3;bvoobt12gur23nj;true;166.667;390;195;psychophysics;295101;practice_trials;NULL;NULL;NULL;NULL;13_11_2020_15_15_50
2;5;1;noStructureExp;query;6;7282;saddlebrown;purple,green,saddlebrown,pink,yellow,white;120,570,480,210,300,390;150,180,210,240,270,300;51;3;3;bvoobt12gur23nj;true;166.667;390;195;psychophysics;303388;practice_trial;NULL;NULL;NULL;NULL;13_11_2020_15_15_50
3;0;1;noStructureExp;bars;1;2659;purple;purple;390;150;32;1;1;bvoobt12gur23nj;true;166.668;390;195;psychophysics;308053;practice_trials;NULL;NULL;NULL;NULL;13_11_2020_15_15_50
3;0;1;noStructureExp;query;1;5572;purple;purple;390;150;49;1;1;bvoobt12gur23nj;true;16.667;390;195;psychophysics;314628;practice_trial;NULL;NULL;NULL;NULL;13_11_2020_15_15_50
4;4;1;noStructureExp;bars;5;9161;black;black,white,red,green,orange;210,480,390,570,300;180,210,240,270,300;32;1;1;bvoobt12gur23nj;true;166.665;390;195;psychophysics;325796;practice_trials;NULL;NULL;NULL;NULL;13_11_2020_15_15_50
4;4;1;noStructureExp;query;5;3331;black;black,white,red,green,orange;210,480,390,570,300;180,210,240,270,300;49;1;1;bvoobt12gur23nj;true;166.669;390;195;psychophysics;330132;practice_trial;NULL;NULL;NULL;NULL;13_11_2020_15_15_50
5;2;1;noStructureExp;bars;3;6138;pink;green,white,pink;390,300,480;180,210,240;32;3;3;bvoobt12gur23nj;true;166.667;390;195;psychophysics;338277;practice_trials;NULL;NULL;NULL;NULL;13_11_2020_15_15_50
5;2;1;noStructureExp;query;3;3700;pink;green,white,pink;390,300,480;180,210,240;51;3;3;bvoobt12gur23nj;true;166.668;390;195;psychophysics;342981;practice_trial;NULL;NULL;NULL;NULL;13_11_2020_15_15_50
6;6;1;noStructureExp;bars;7;7386;black;orange,blue,yellow,saddlebrown,black,pink,green;120,390,480,210,300,570,660;150,180,210,240,270,300,330;32;5;5;bvoobt12gur23nj;true;166.666;390;195;psychophysics;352373;practice_trials;NULL;NULL;NULL;NULL;13_11_2020_15_15_50
6;6;1;noStructureExp;query;7;15043;black;orange,blue,yellow,saddlebrown,black,pink,green;120,390,480,210,300,570,660;150,180,210,240,270,300,330;53;5;5;bvoobt12gur23nj;true;166.667;390;195;psychophysics;368421;practice_trial;NULL;NULL;NULL;NULL;13_11_2020_15_15_50
7;3;1;noStructureExp;bars;4;6098;pink;blue,orange,yellow,pink;390,480,210,300;210,240,270,300;32;4;4;bvoobt12gur23nj;true;166.665;390;195;psychophysics;376525;practice_trials;NULL;NULL;NULL;NULL;13_11_2020_15_15_50
7;3;1;noStructureExp;query;4;3069;pink;blue,orange,yellow,pink;390,480,210,300;210,240,270,300;52;4;4;bvoobt12gur23nj;true;166.667;390;195;psychophysics;380597;practice_trial;NULL;NULL;NULL;NULL;13_11_2020_15_15_50
8;5;2;noStructureCont;bars;6;4865;black;saddlebrown,pink,black,red,purple,white;120,210,300,390,480,570;150,180,210,240,270,300;32;3;3;bvoobt12gur23nj;true;16.667;390;195;psychophysics;396302;practice_trials;NULL;NULL;NULL;NULL;13_11_2020_15_15_50
8;5;2;noStructureCont;query;6;3138;black;saddlebrown,pink,black,red,purple,white;120,210,300,390,480,570;150,180,210,240,270,300;51;3;3;bvoobt12gur23nj;true;166.667;390;195;psychophysics;400445;practice_trial;NULL;NULL;NULL;NULL;13_11_2020_15_15_50
9;3;2;noStructureCont;bars;4;7323;green;purple,red,pink,green;210,300,390,480;210,240,270,300;32;4;52;bvoobt12gur23nj;invalid response;166.667;390;195;psychophysics;409773;practice_trials;NULL;NULL;NULL;NULL;13_11_2020_15_15_50
9;3;2;noStructureCont;query;4;2177;green;purple,red,pink,green;210,300,390,480;210,240,270,300;100;4;52;bvoobt12gur23nj;invalid response;166.675;390;195;psychophysics;412957;practice_trial;NULL;NULL;NULL;NULL;13_11_2020_15_15_50
10;4;2;noStructureCont;bars;5;10428;red;red,pink,yellow,black,orange;210,300,390,480,570;180,210,240,270,300;32;1;1;bvoobt12gur23nj;true;166.668;390;195;psychophysics;429389;practice_trials;NULL;NULL;NULL;NULL;13_11_2020_15_15_50
10;4;2;noStructureCont;query;5;2116;red;red,pink,yellow,black,orange;210,300,390,480,570;180,210,240,270,300;49;1;1;bvoobt12gur23nj;true;166.667;390;195;psychophysics;432509;practice_trial;NULL;NULL;NULL;NULL;13_11_2020_15_15_50
11;1;2;noStructureCont;bars;2;2386;orange;green,orange;300,39;300,33;32;2;2;bvoobt12gur23nj;true;166.667;390;195;psychophysics;436902;practice_trials;NULL;NULL;NULL;NULL;13_11_2020_15_15_50
11;1;2;noStructureCont;query;2;1458;orange;green,orange;300,39;300,33;50;2;2;bvoobt12gur23nj;true;16.666;390;195;psychophysics;439365;practice_trial;NULL;NULL;NULL;NULL;13_11_2020_15_15_50
12;6;2;noStructureCont;bars;7;8194;pink;blue,white,saddlebrown,green,pink,purple,yellow;120,210,300,390,480,570,660;150,180,210,240,270,300,330;32;5;5;bvoobt12gur23nj;true;166.668;390;195;psychophysics;449565;practice_trials;NULL;NULL;NULL;NULL;13_11_2020_15_15_50
12;6;2;noStructureCont;query;7;3444;pink;blue,white,saddlebrown,green,pink,purple,yellow;120,210,300,390,480,570,660;150,180,210,240,270,300,330;53;5;5;bvoobt12gur23nj;true;166.664;390;195;psychophysics;454013;practice_trial;NULL;NULL;NULL;NULL;13_11_2020_15_15_50
13;0;2;noStructureCont;bars;1;2186;green;green;390;150;32;1;1;bvoobt12gur23nj;true;16.667;390;195;psychophysics;458205;practice_trials;NULL;NULL;NULL;NULL;13_11_2020_15_15_50
13;0;2;noStructureCont;query;1;1109;green;green;390;150;49;1;1;bvoobt12gur23nj;true;166.671;390;195;psychophysics;460318;practice_trial;NULL;NULL;NULL;NULL;13_11_2020_15_15_50
14;2;2;noStructureCont;bars;3;2344;green;red,white,green;300,390,480;180,210,240;32;3;3;bvoobt12gur23nj;true;166.665;390;195;psychophysics;464669;practice_trials;NULL;NULL;NULL;NULL;13_11_2020_15_15_50
14;2;2;noStructureCont;query;3;1164;green;red,white,green;300,390,480;180,210,240;51;3;3;bvoobt12gur23nj;true;166.672;390;195;psychophysics;466837;practice_trial;NULL;NULL;NULL;NULL;13_11_2020_15_15_50
NULL;NULL;NULL;NULL;end_of_practice;NULL;8349;NULL;NULL;NULL;NULL;32;NULL;NULL;bvoobt12gur23nj;NULL;NULL;NULL;NULL;html-keyboard-response;476189;practice_trials;476193;793.655;0.857143;NULL;13_11_2020_15_15_50
1;3;1;noStructureExp;bars;4;20546;blue;pink,purple,green,blue;300,390,480,210;180,210,240,270;32;4;4;je9la01s4txjkw5;true;166.666;390;195;psychophysics;315867;practice_trials;NULL;NULL;NULL;NULL;13_11_2020_15_16_8
1;3;1;noStructureExp;query;4;4613;blue;pink,purple,green,blue;300,390,480,210;180,210,240,270;52;4;4;je9la01s4txjkw5;true;166.668;390;195;psychophysics;321496;practice_trial;NULL;NULL;NULL;NULL;13_11_2020_15_16_8
2;1;1;noStructureExp;bars;2;7270;blue;orange,blue;390,3;240,27;32;2;2;je9la01s4txjkw5;true;166.666;390;195;psychophysics;330778;practice_trials;NULL;NULL;NULL;NULL;13_11_2020_15_16_8
2;1;1;noStructureExp;query;2;5167;blue;orange,blue;390,3;240,27;50;2;2;je9la01s4txjkw5;true;166.666;390;195;psychophysics;336952;practice_trial;NULL;NULL;NULL;NULL;13_11_2020_15_16_8
3;5;1;noStructureExp;bars;6;36930;saddlebrown;saddlebrown,pink,purple,green,red,orange;390,120,480,210,570,300;150,180,210,240,270,300;32;1;1;je9la01s4txjkw5;true;166.667;390;195;psychophysics;375895;practice_trials;NULL;NULL;NULL;NULL;13_11_2020_15_16_8
3;5;1;noStructureExp;query;6;5009;saddlebrown;saddlebrown,pink,purple,green,red,orange;390,120,480,210,570,300;150,180,210,240,270,300;49;1;1;je9la01s4txjkw5;true;166.666;390;195;psychophysics;381911;practice_trial;NULL;NULL;NULL;NULL;13_11_2020_15_16_8
4;6;1;noStructureExp;bars;7;25302;purple;orange,green,yellow,saddlebrown,black,pink,purple;300,210,480,120,570,390,660;150,180,210,240,270,300,330;32;7;6;je9la01s4txjkw5;false;166.667;390;195;psychophysics;409224;practice_trials;NULL;NULL;NULL;NULL;13_11_2020_15_16_8
4;6;1;noStructureExp;query;7;8588;purple;orange,green,yellow,saddlebrown,black,pink,purple;300,210,480,120,570,390,660;150,180,210,240,270,300,330;54;7;6;je9la01s4txjkw5;false;166.668;390;195;psychophysics;418823;practice_trial;NULL;NULL;NULL;NULL;13_11_2020_15_16_8
5;2;1;noStructureExp;bars;3;14758;white;yellow,white,purple;300,390,480;270,300,330;32;2;2;je9la01s4txjkw5;true;166.666;390;195;psychophysics;435592;practice_trials;NULL;NULL;NULL;NULL;13_11_2020_15_16_8
5;2;1;noStructureExp;query;3;2880;white;yellow,white,purple;300,390,480;270,300,330;50;2;2;je9la01s4txjkw5;true;166.666;390;195;psychophysics;439479;practice_trial;NULL;NULL;NULL;NULL;13_11_2020_15_16_8
6;0;1;noStructureExp;bars;1;2311;red;red;390;330;32;1;1;je9la01s4txjkw5;true;166.661;390;195;psychophysics;443799;practice_trials;NULL;NULL;NULL;NULL;13_11_2020_15_16_8
6;0;1;noStructureExp;query;1;1426;red;red;390;330;49;1;1;je9la01s4txjkw5;true;166.664;390;195;psychophysics;446231;practice_trial;NULL;NULL;NULL;NULL;13_11_2020_15_16_8
7;4;1;noStructureExp;bars;5;15874;saddlebrown;purple,white,green,saddlebrown,pink;210,300,570,480,390;180,210,240,270,300;32;4;4;je9la01s4txjkw5;true;166.667;390;195;psychophysics;464120;practice_trials;NULL;NULL;NULL;NULL;13_11_2020_15_16_8
7;4;1;noStructureExp;query;5;5596;saddlebrown;purple,white,green,saddlebrown,pink;210,300,570,480,390;180,210,240,270,300;52;4;4;je9la01s4txjkw5;true;166.667;390;195;psychophysics;470727;practice_trial;NULL;NULL;NULL;NULL;13_11_2020_15_16_8
8;2;2;noStructureCont;bars;3;5422;yellow;blue,yellow,purple;300,390,480;270,300,330;32;2;2;je9la01s4txjkw5;true;166.665;390;195;psychophysics;484231;practice_trials;NULL;NULL;NULL;NULL;13_11_2020_15_16_8
8;2;2;noStructureCont;query;3;2465;yellow;blue,yellow,purple;300,390,480;270,300,330;50;2;2;je9la01s4txjkw5;true;166.666;390;195;psychophysics;487703;practice_trial;NULL;NULL;NULL;NULL;13_11_2020_15_16_8
9;3;2;noStructureCont;bars;4;11766;blue;purple,pink,saddlebrown,blue;210,300,390,480;180,210,240,270;32;4;4;je9la01s4txjkw5;true;166.666;390;195;psychophysics;501480;practice_trials;NULL;NULL;NULL;NULL;13_11_2020_15_16_8
9;3;2;noStructureCont;query;4;2221;blue;purple,pink,saddlebrown,blue;210,300,390,480;180,210,240,270;52;4;4;je9la01s4txjkw5;true;16.666;390;195;psychophysics;504711;practice_trial;NULL;NULL;NULL;NULL;13_11_2020_15_16_8
10;6;2;noStructureCont;bars;7;18694;red;saddlebrown,green,pink,purple,yellow,black,red;120,210,300,390,480,570,660;150,180,210,240,270,300,330;32;7;7;je9la01s4txjkw5;true;166.667;390;195;psychophysics;525415;practice_trials;NULL;NULL;NULL;NULL;13_11_2020_15_16_8
10;6;2;noStructureCont;query;7;5728;red;saddlebrown,green,pink,purple,yellow,black,red;120,210,300,390,480,570,660;150,180,210,240,270,300,330;55;7;7;je9la01s4txjkw5;true;166.666;390;195;psychophysics;532151;practice_trial;NULL;NULL;NULL;NULL;13_11_2020_15_16_8
11;5;2;noStructureCont;bars;6;13748;white;white,orange,green,blue,red,pink;120,210,300,390,480,570;150,180,210,240,270,300;32;1;1;je9la01s4txjkw5;true;166.667;390;195;psychophysics;547912;practice_trials;NULL;NULL;NULL;NULL;13_11_2020_15_16_8
11;5;2;noStructureCont;query;6;3889;white;white,orange,green,blue,red,pink;120,210,300,390,480,570;150,180,210,240,270,300;49;1;1;je9la01s4txjkw5;true;166.668;390;195;psychophysics;552807;practice_trial;NULL;NULL;NULL;NULL;13_11_2020_15_16_8
12;4;2;noStructureCont;bars;5;16903;yellow;green,black,orange,yellow,saddlebrown;210,300,390,480,570;180,210,240,270,300;32;4;4;je9la01s4txjkw5;true;166.666;390;195;psychophysics;571719;practice_trials;NULL;NULL;NULL;NULL;13_11_2020_15_16_8
12;4;2;noStructureCont;query;5;4189;yellow;green,black,orange,yellow,saddlebrown;210,300,390,480,570;180,210,240,270,300;52;4;4;je9la01s4txjkw5;true;166.666;390;195;psychophysics;576919;practice_trial;NULL;NULL;NULL;NULL;13_11_2020_15_16_8
13;1;2;noStructureCont;bars;2;3447;saddlebrown;purple,saddlebrown;300,39;240,27;32;2;2;je9la01s4txjkw5;true;166.664;390;195;psychophysics;582377;practice_trials;NULL;NULL;NULL;NULL;13_11_2020_15_16_8
13;1;2;noStructureCont;query;2;1838;saddlebrown;purple,saddlebrown;300,39;240,27;50;2;2;je9la01s4txjkw5;true;166.665;390;195;psychophysics;585223;practice_trial;NULL;NULL;NULL;NULL;13_11_2020_15_16_8
14;0;2;noStructureCont;bars;1;2689;orange;orange;390;330;32;1;1;je9la01s4txjkw5;true;166.667;390;195;psychophysics;589927;practice_trials;NULL;NULL;NULL;NULL;13_11_2020_15_16_8
14;0;2;noStructureCont;query;1;1313;orange;orange;390;330;49;1;1;je9la01s4txjkw5;true;166.665;390;195;psychophysics;592247;practice_trial;NULL;NULL;NULL;NULL;13_11_2020_15_16_8
NULL;NULL;NULL;NULL;end_of_practice;NULL;5538;NULL;NULL;NULL;NULL;32;NULL;NULL;je9la01s4txjkw5;NULL;NULL;NULL;NULL;html-keyboard-response;598792;practice_trials;598800;Sep 98;0.928571;NULL;13_11_2020_15_16_8
1;1;1;noStructureExp;bars;2;5843;black;yellow,black;390,3;270,3;32;2;2;c3rhzlb2eqwbqd9;true;169.075;390;195;psychophysics;23083;practice_trials;NULL;NULL;NULL;NULL;13_11_2020_15_24_35
1;1;1;noStructureExp;query;2;8982;black;yellow,black;390,3;270,3;50;2;2;c3rhzlb2eqwbqd9;true;16.666;390;195;psychophysics;33073;practice_trial;NULL;NULL;NULL;NULL;13_11_2020_15_24_35
2;0;1;noStructureExp;bars;1;1803;red;red;390;300;32;1;1;c3rhzlb2eqwbqd9;true;16.666;390;195;psychophysics;36890;practice_trials;NULL;NULL;NULL;NULL;13_11_2020_15_24_35
2;0;1;noStructureExp;query;1;1846;red;red;390;300;49;1;1;c3rhzlb2eqwbqd9;true;16.666;390;195;psychophysics;39758;practice_trial;NULL;NULL;NULL;NULL;13_11_2020_15_24_35
3;4;1;noStructureExp;bars;5;7366;white;orange,yellow,white,pink,green;480,300,390,570,210;210,240,270,300,330;32;3;3;c3rhzlb2eqwbqd9;true;167.039;390;195;psychophysics;49144;practice_trials;NULL;NULL;NULL;NULL;13_11_2020_15_24_35
3;4;1;noStructureExp;query;5;9949;white;orange,yellow,white,pink,green;480,300,390,570,210;210,240,270,300,330;51;3;3;c3rhzlb2eqwbqd9;true;16.666;390;195;psychophysics;60103;practice_trial;NULL;NULL;NULL;NULL;13_11_2020_15_24_35
4;5;1;noStructureExp;bars;6;7124;green;yellow,black,green,white,saddlebrown,orange;210,570,120,480,390,300;150,180,210,240,270,300;32;3;3;c3rhzlb2eqwbqd9;true;168.236;390;195;psychophysics;69238;practice_trials;NULL;NULL;NULL;NULL;13_11_2020_15_24_35
4;5;1;noStructureExp;query;6;9072;green;yellow,black,green,white,saddlebrown,orange;210,570,120,480,390,300;150,180,210,240,270,300;51;3;3;c3rhzlb2eqwbqd9;true;16.666;390;195;psychophysics;79316;practice_trial;NULL;NULL;NULL;NULL;13_11_2020_15_24_35
5;3;1;noStructureExp;bars;4;6229;green;orange,pink,purple,green;480,300,390,210;240,270,300,330;32;4;4;c3rhzlb2eqwbqd9;true;168.011;390;195;psychophysics;87554;practice_trials;NULL;NULL;NULL;NULL;13_11_2020_15_24_35
5;3;1;noStructureExp;query;4;6388;green;orange,pink,purple,green;480,300,390,210;240,270,300,330;52;4;4;c3rhzlb2eqwbqd9;true;16.666;390;195;psychophysics;94955;practice_trial;NULL;NULL;NULL;NULL;13_11_2020_15_24_35
6;2;1;noStructureExp;bars;3;6073;yellow;saddlebrown,green,yellow;480,390,300;180,210,240;32;3;3;c3rhzlb2eqwbqd9;true;171.368;390;195;psychophysics;103042;practice_trials;NULL;NULL;NULL;NULL;13_11_2020_15_24_35
6;2;1;noStructureExp;query;3;4448;yellow;saddlebrown,green,yellow;480,390,300;180,210,240;51;3;3;c3rhzlb2eqwbqd9;true;167.287;390;195;psychophysics;108501;practice_trial;NULL;NULL;NULL;NULL;13_11_2020_15_24_35
7;6;1;noStructureExp;bars;7;6738;pink;orange,pink,white,red,yellow,black,purple;300,210,390,480,120,660,570;150,180,210,240,270,300,330;32;2;2;c3rhzlb2eqwbqd9;true;169.599;390;195;psychophysics;117249;practice_trials;NULL;NULL;NULL;NULL;13_11_2020_15_24_35
7;6;1;noStructureExp;query;7;7519;pink;orange,pink,white,red,yellow,black,purple;300,210,390,480,120,660,570;150,180,210,240,270,300,330;50;2;2;c3rhzlb2eqwbqd9;true;16.666;390;195;psychophysics;125774;practice_trial;NULL;NULL;NULL;NULL;13_11_2020_15_24_35
8;1;2;noStructureCont;bars;2;7097;white;saddlebrown,white;300,39;270,3;32;2;2;c3rhzlb2eqwbqd9;true;171.919;390;195;psychophysics;135037;practice_trials;NULL;NULL;NULL;NULL;13_11_2020_15_24_35
8;1;2;noStructureCont;query;2;4570;white;saddlebrown,white;300,39;270,3;50;2;2;c3rhzlb2eqwbqd9;true;16.666;390;195;psychophysics;140615;practice_trial;NULL;NULL;NULL;NULL;13_11_2020_15_24_35
9;4;2;noStructureCont;bars;5;11375;purple;saddlebrown,green,purple,red,orange;210,300,390,480,570;210,240,270,300,330;32;3;3;c3rhzlb2eqwbqd9;true;171.185;390;195;psychophysics;153998;practice_trials;NULL;NULL;NULL;NULL;13_11_2020_15_24_35
9;4;2;noStructureCont;query;5;6363;purple;saddlebrown,green,purple,red,orange;210,300,390,480,570;210,240,270,300,330;51;3;3;c3rhzlb2eqwbqd9;true;180.391;390;195;psychophysics;161370;practice_trial;NULL;NULL;NULL;NULL;13_11_2020_15_24_35
10;2;2;noStructureCont;bars;3;5933;orange;pink,red,orange;300,390,480;180,210,240;32;3;3;c3rhzlb2eqwbqd9;true;180.379;390;195;psychophysics;169314;practice_trials;NULL;NULL;NULL;NULL;13_11_2020_15_24_35
10;2;2;noStructureCont;query;3;4536;orange;pink,red,orange;300,390,480;180,210,240;51;3;3;c3rhzlb2eqwbqd9;true;187.406;390;195;psychophysics;174855;practice_trial;NULL;NULL;NULL;NULL;13_11_2020_15_24_35
11;3;2;noStructureCont;bars;4;12556;white;blue,green,purple,white;210,300,390,480;240,270,300,330;32;4;4;c3rhzlb2eqwbqd9;true;174.309;390;195;psychophysics;189423;practice_trials;NULL;NULL;NULL;NULL;13_11_2020_15_24_35
11;3;2;noStructureCont;query;4;5997;white;blue,green,purple,white;210,300,390,480;240,270,300,330;52;4;4;c3rhzlb2eqwbqd9;true;180.716;390;195;psychophysics;196430;practice_trial;NULL;NULL;NULL;NULL;13_11_2020_15_24_35
12;5;2;noStructureCont;bars;6;7340;purple;green,white,purple,orange,saddlebrown,yellow;120,210,300,390,480,570;150,180,210,240,270,300;32;3;3;c3rhzlb2eqwbqd9;true;178.014;390;195;psychophysics;205780;practice_trials;NULL;NULL;NULL;NULL;13_11_2020_15_24_35
12;5;2;noStructureCont;query;6;4583;purple;green,white,purple,orange,saddlebrown,yellow;120,210,300,390,480,570;150,180,210,240,270,300;51;3;3;c3rhzlb2eqwbqd9;true;185.629;390;195;psychophysics;211370;practice_trial;NULL;NULL;NULL;NULL;13_11_2020_15_24_35
13;6;2;noStructureCont;bars;7;7455;black;blue,black,orange,red,white,pink,yellow;120,210,300,390,480,570,660;150,180,210,240,270,300,330;32;2;2;c3rhzlb2eqwbqd9;true;180.413;390;195;psychophysics;220845;practice_trials;NULL;NULL;NULL;NULL;13_11_2020_15_24_35
13;6;2;noStructureCont;query;7;4374;black;blue,black,orange,red,white,pink,yellow;120,210,300,390,480,570,660;150,180,210,240,270,300,330;50;2;2;c3rhzlb2eqwbqd9;true;187.493;390;195;psychophysics;226225;practice_trial;NULL;NULL;NULL;NULL;13_11_2020_15_24_35
14;0;2;noStructureCont;bars;1;2010;purple;purple;390;300;32;1;1;c3rhzlb2eqwbqd9;true;168.061;390;195;psychophysics;230248;practice_trials;NULL;NULL;NULL;NULL;13_11_2020_15_24_35
14;0;2;noStructureCont;query;1;1531;purple;purple;390;300;49;1;1;c3rhzlb2eqwbqd9;true;16.666;390;195;psychophysics;232785;practice_trial;NULL;NULL;NULL;NULL;13_11_2020_15_24_35
NULL;NULL;NULL;NULL;end_of_practice;NULL;11272;NULL;NULL;NULL;NULL;32;NULL;NULL;c3rhzlb2eqwbqd9;NULL;NULL;NULL;NULL;html-keyboard-response;245064;practice_trials;245071;408.452;1;NULL;13_11_2020_15_24_35
1;5;1;noStructureExp;bars;6;10667;purple;purple,black,yellow,saddlebrown,blue,red;390,570,210,300,480,120;180,210,240,270,300,330;32;1;4;cz7ln2tal5qhfz1;false;675.132;390;195;psychophysics;355585;practice_trials;NULL;NULL;NULL;NULL;13_11_2020_4_47_20
1;5;1;noStructureExp;query;6;6217;purple;purple,black,yellow,saddlebrown,blue,red;390,570,210,300,480,120;180,210,240,270,300,330;52;1;4;cz7ln2tal5qhfz1;false;878.536;390;195;psychophysics;362813;practice_trial;NULL;NULL;NULL;NULL;13_11_2020_4_47_20
2;0;1;noStructureExp;bars;1;9637;orange;orange;390;210;32;1;3;cz7ln2tal5qhfz1;false;614.292;390;195;psychophysics;374457;practice_trials;NULL;NULL;NULL;NULL;13_11_2020_4_47_20
2;0;1;noStructureExp;query;1;5978;orange;orange;390;210;51;1;3;cz7ln2tal5qhfz1;false;704.337;390;195;psychophysics;381440;practice_trial;NULL;NULL;NULL;NULL;13_11_2020_4_47_20
3;2;1;noStructureExp;bars;3;15567;black;saddlebrown,purple,black;390,480,300;210,240,270;32;3;1;cz7ln2tal5qhfz1;false;734.568;390;195;psychophysics;399013;practice_trials;NULL;NULL;NULL;NULL;13_11_2020_4_47_20
3;2;1;noStructureExp;query;3;4949;black;saddlebrown,purple,black;390,480,300;210,240,270;49;3;1;cz7ln2tal5qhfz1;false;606.972;390;195;psychophysics;404967;practice_trial;NULL;NULL;NULL;NULL;13_11_2020_4_47_20
4;6;1;noStructureExp;bars;7;16426;saddlebrown;orange,pink,blue,purple,white,yellow,saddlebrown;480,300,660,120,570,390,210;150,180,210,240,270,300,330;32;7;2;cz7ln2tal5qhfz1;false;102.392;390;195;psychophysics;423404;practice_trials;NULL;NULL;NULL;NULL;13_11_2020_4_47_20
4;6;1;noStructureExp;query;7;10888;saddlebrown;orange,pink,blue,purple,white,yellow,saddlebrown;480,300,660,120,570,390,210;150,180,210,240,270,300,330;50;7;2;cz7ln2tal5qhfz1;false;843.716;390;195;psychophysics;435297;practice_trial;NULL;NULL;NULL;NULL;13_11_2020_4_47_20
5;4;1;noStructureExp;bars;5;22277;pink;blue,purple,black,orange,pink;480,390,210,570,300;150,180,210,240,270;32;5;2;cz7ln2tal5qhfz1;false;130.877;390;195;psychophysics;459580;practice_trials;NULL;NULL;NULL;NULL;13_11_2020_4_47_20
5;4;1;noStructureExp;query;5;13380;pink;blue,purple,black,orange,pink;480,390,210,570,300;150,180,210,240,270;50;5;2;cz7ln2tal5qhfz1;false;84.71;390;195;psychophysics;473968;practice_trial;NULL;NULL;NULL;NULL;13_11_2020_4_47_20
6;1;1;noStructureExp;bars;2;5120;saddlebrown;red,saddlebrown;300,39;240,27;32;2;1;cz7ln2tal5qhfz1;false;531.558;390;195;psychophysics;481098;practice_trials;NULL;NULL;NULL;NULL;13_11_2020_4_47_20
6;1;1;noStructureExp;query;2;1213;saddlebrown;red,saddlebrown;300,39;240,27;49;2;1;cz7ln2tal5qhfz1;false;492.734;390;195;psychophysics;483315;practice_trial;NULL;NULL;NULL;NULL;13_11_2020_4_47_20
7;3;1;noStructureExp;bars;4;7497;black;black,purple,green,pink;300,390,480,210;240,270,300,330;32;1;4;cz7ln2tal5qhfz1;false;750.812;390;195;psychophysics;492820;practice_trials;NULL;NULL;NULL;NULL;13_11_2020_4_47_20
7;3;1;noStructureExp;query;4;50821;black;black,purple,green,pink;300,390,480,210;240,270,300,330;52;1;4;cz7ln2tal5qhfz1;false;255.015;390;195;psychophysics;544645;practice_trial;NULL;NULL;NULL;NULL;13_11_2020_4_47_20
8;0;2;noStructureCont;bars;1;7227;saddlebrown;saddlebrown;390;210;32;1;1;cz7ln2tal5qhfz1;true;738.802;390;195;psychophysics;558149;practice_trials;NULL;NULL;NULL;NULL;13_11_2020_4_47_20
8;0;2;noStructureCont;query;1;4372;saddlebrown;saddlebrown;390;210;49;1;1;cz7ln2tal5qhfz1;true;477.759;390;195;psychophysics;563526;practice_trial;NULL;NULL;NULL;NULL;13_11_2020_4_47_20
9;3;2;noStructureCont;bars;4;46196;pink;pink,yellow,blue,orange;210,300,390,480;240,270,300,330;32;1;1;cz7ln2tal5qhfz1;true;231.9;390;195;psychophysics;611727;practice_trials;NULL;NULL;NULL;NULL;13_11_2020_4_47_20
9;3;2;noStructureCont;query;4;6495;pink;pink,yellow,blue,orange;210,300,390,480;240,270,300,330;49;1;1;cz7ln2tal5qhfz1;true;87.896;390;195;psychophysics;619228;practice_trial;NULL;NULL;NULL;NULL;13_11_2020_4_47_20
10;1;2;noStructureCont;bars;2;5808;green;yellow,green;300,39;240,27;32;2;2;cz7ln2tal5qhfz1;true;479.147;390;195;psychophysics;627043;practice_trials;NULL;NULL;NULL;NULL;13_11_2020_4_47_20
10;1;2;noStructureCont;query;2;2672;green;yellow,green;300,39;240,27;50;2;2;cz7ln2tal5qhfz1;true;473.195;390;195;psychophysics;630720;practice_trial;NULL;NULL;NULL;NULL;13_11_2020_4_47_20
11;6;2;noStructureCont;bars;7;10801;green;purple,red,pink,black,orange,saddlebrown,green;120,210,300,390,480,570,660;150,180,210,240,270,300,330;32;7;7;cz7ln2tal5qhfz1;true;942.945;390;195;psychophysics;643526;practice_trials;NULL;NULL;NULL;NULL;13_11_2020_4_47_20
11;6;2;noStructureCont;query;7;5154;green;purple,red,pink,black,orange,saddlebrown,green;120,210,300,390,480,570,660;150,180,210,240,270,300,330;55;7;7;cz7ln2tal5qhfz1;true;796.843;390;195;psychophysics;649686;practice_trial;NULL;NULL;NULL;NULL;13_11_2020_4_47_20
12;5;2;noStructureCont;bars;6;7176;pink;pink,blue,black,orange,yellow,saddlebrown;120,210,300,390,480,570;180,210,240,270,300,330;32;1;144;cz7ln2tal5qhfz1;invalid response;778.357;390;195;psychophysics;658869;practice_trials;NULL;NULL;NULL;NULL;13_11_2020_4_47_20
12;5;2;noStructureCont;query;6;3572;pink;pink,blue,black,orange,yellow,saddlebrown;120,210,300,390,480,570;180,210,240,270,300,330;192;1;144;cz7ln2tal5qhfz1;invalid response;78.145;390;195;psychophysics;663445;practice_trial;NULL;NULL;NULL;NULL;13_11_2020_4_47_20
13;4;2;noStructureCont;bars;5;13065;saddlebrown;blue,yellow,black,white,saddlebrown;210,300,390,480,570;150,180,210,240,270;32;5;5;cz7ln2tal5qhfz1;true;664.931;390;195;psychophysics;682657;practice_trials;NULL;NULL;NULL;NULL;13_11_2020_4_47_20
13;4;2;noStructureCont;query;5;3577;saddlebrown;blue,yellow,black,white,saddlebrown;210,300,390,480,570;150,180,210,240,270;53;5;5;cz7ln2tal5qhfz1;true;785.154;390;195;psychophysics;687241;practice_trial;NULL;NULL;NULL;NULL;13_11_2020_4_47_20
14;2;2;noStructureCont;bars;3;6715;green;pink,yellow,green;300,390,480;210,240,270;32;3;3;cz7ln2tal5qhfz1;true;806.878;390;195;psychophysics;695965;practice_trials;NULL;NULL;NULL;NULL;13_11_2020_4_47_20
14;2;2;noStructureCont;query;3;15842;green;pink,yellow,green;300,390,480;210,240,270;51;3;3;cz7ln2tal5qhfz1;true;648.881;390;195;psychophysics;712815;practice_trial;NULL;NULL;NULL;NULL;13_11_2020_4_47_20
NULL;NULL;NULL;NULL;end_of_practice;NULL;78020;NULL;NULL;NULL;NULL;32;NULL;NULL;cz7ln2tal5qhfz1;NULL;NULL;NULL;NULL;html-keyboard-response;791841;practice_trials;791854;131.976;0.428571;NULL;13_11_2020_4_47_20
1;2;1;noStructureExp;bars;3;6848;saddlebrown;green,black,saddlebrown;300,390,480;240,270,300;32;3;51;lymkfw9n1mft0no;invalid response;16.662;390;195;psychophysics;333142;practice_trials;NULL;NULL;NULL;NULL;13_11_2020_15_29_3
1;2;1;noStructureExp;query;3;2273;saddlebrown;green,black,saddlebrown;300,390,480;240,270,300;99;3;51;lymkfw9n1mft0no;invalid response;166.625;390;195;psychophysics;336421;practice_trial;NULL;NULL;NULL;NULL;13_11_2020_15_29_3
2;6;1;noStructureExp;bars;7;94705;saddlebrown;purple,yellow,red,green,pink,saddlebrown,orange;210,480,660,300,390,570,120;150,180,210,240,270,300,330;32;6;6;lymkfw9n1mft0no;true;29.087;390;195;psychophysics;437142;practice_trials;NULL;NULL;NULL;NULL;13_11_2020_15_29_3
2;6;1;noStructureExp;query;7;12751;saddlebrown;purple,yellow,red,green,pink,saddlebrown,orange;210,480,660,300,390,570,120;150,180,210,240,270,300,330;54;6;6;lymkfw9n1mft0no;true;236.611;390;195;psychophysics;450900;practice_trial;NULL;NULL;NULL;NULL;13_11_2020_15_29_3
3;5;1;noStructureExp;bars;6;37799;blue;black,green,white,blue,orange,yellow;390,120,210,480,300,570;150,180,210,240,270,300;32;4;53;lymkfw9n1mft0no;invalid response;166.621;390;195;psychophysics;490709;practice_trials;NULL;NULL;NULL;NULL;13_11_2020_15_29_3
3;5;1;noStructureExp;query;6;4417;blue;black,green,white,blue,orange,yellow;390,120,210,480,300,570;150,180,210,240,270,300;101;4;53;lymkfw9n1mft0no;invalid response;166.622;390;195;psychophysics;496132;practice_trial;NULL;NULL;NULL;NULL;13_11_2020_15_29_3
4;4;1;noStructureExp;bars;5;21510;black;black,pink,blue,orange,white;570,390,210,300,480;150,180,210,240,270;32;1;5;lymkfw9n1mft0no;false;16.662;390;195;psychophysics;523652;practice_trials;NULL;NULL;NULL;NULL;13_11_2020_15_29_3
4;4;1;noStructureExp;query;5;4497;black;black,pink,blue,orange,white;570,390,210,300,480;150,180,210,240,270;53;1;5;lymkfw9n1mft0no;false;166.623;390;195;psychophysics;529155;practice_trial;NULL;NULL;NULL;NULL;13_11_2020_15_29_3
5;0;1;noStructureExp;bars;1;3802;green;green;390;300;32;1;1;lymkfw9n1mft0no;true;16.662;390;195;psychophysics;534964;practice_trials;NULL;NULL;NULL;NULL;13_11_2020_15_29_3
5;0;1;noStructureExp;query;1;2641;green;green;390;300;49;1;1;lymkfw9n1mft0no;true;166.629;390;195;psychophysics;538612;practice_trial;NULL;NULL;NULL;NULL;13_11_2020_15_29_3
6;1;1;noStructureExp;bars;2;3496;saddlebrown;black,saddlebrown;300,39;180,21;32;2;2;lymkfw9n1mft0no;true;166.624;390;195;psychophysics;544116;practice_trials;NULL;NULL;NULL;NULL;13_11_2020_15_29_3
6;1;1;noStructureExp;query;2;1618;saddlebrown;black,saddlebrown;300,39;180,21;50;2;2;lymkfw9n1mft0no;true;166.612;390;195;psychophysics;546740;practice_trial;NULL;NULL;NULL;NULL;13_11_2020_15_29_3
7;3;1;noStructureExp;bars;4;3528;black;black,purple,white,red;300,210,480,390;210,240,270,300;32;1;2;lymkfw9n1mft0no;false;166.617;390;195;psychophysics;552276;practice_trials;NULL;NULL;NULL;NULL;13_11_2020_15_29_3
7;3;1;noStructureExp;query;4;1570;black;black,purple,white,red;300,210,480,390;210,240,270,300;50;1;2;lymkfw9n1mft0no;false;166.624;390;195;psychophysics;554851;practice_trial;NULL;NULL;NULL;NULL;13_11_2020_15_29_3
8;2;2;noStructureCont;bars;3;3139;purple;yellow,saddlebrown,purple;300,390,480;240,270,300;32;3;3;lymkfw9n1mft0no;true;166.611;390;195;psychophysics;567124;practice_trials;NULL;NULL;NULL;NULL;13_11_2020_15_29_3
8;2;2;noStructureCont;query;3;2448;purple;yellow,saddlebrown,purple;300,390,480;240,270,300;51;3;3;lymkfw9n1mft0no;true;16.663;390;195;psychophysics;570579;practice_trial;NULL;NULL;NULL;NULL;13_11_2020_15_29_3
9;1;2;noStructureCont;bars;2;2166;black;saddlebrown,black;300,39;180,21;32;2;2;lymkfw9n1mft0no;true;166.623;390;195;psychophysics;574756;practice_trials;NULL;NULL;NULL;NULL;13_11_2020_15_29_3
9;1;2;noStructureCont;query;2;2290;black;saddlebrown,black;300,39;180,21;50;2;2;lymkfw9n1mft0no;true;16.661;390;195;psychophysics;578052;practice_trial;NULL;NULL;NULL;NULL;13_11_2020_15_29_3
10;3;2;noStructureCont;bars;4;9079;white;white,purple,blue,red;210,300,390,480;210,240,270,300;32;1;1;lymkfw9n1mft0no;true;166.622;390;195;psychophysics;589139;practice_trials;NULL;NULL;NULL;NULL;13_11_2020_15_29_3
10;3;2;noStructureCont;query;4;1555;white;white,purple,blue,red;210,300,390,480;210,240,270,300;49;1;1;lymkfw9n1mft0no;true;166.626;390;195;psychophysics;591699;practice_trial;NULL;NULL;NULL;NULL;13_11_2020_15_29_3
11;5;2;noStructureCont;bars;6;18552;orange;red,green,purple,orange,saddlebrown,pink;120,210,300,390,480,570;150,180,210,240,270,300;32;4;4;lymkfw9n1mft0no;true;166.621;390;195;psychophysics;612260;practice_trials;NULL;NULL;NULL;NULL;13_11_2020_15_29_3
11;5;2;noStructureCont;query;6;3313;orange;red,green,purple,orange,saddlebrown,pink;120,210,300,390,480,570;150,180,210,240,270,300;52;4;4;lymkfw9n1mft0no;true;166.623;390;195;psychophysics;616579;practice_trial;NULL;NULL;NULL;NULL;13_11_2020_15_29_3
12;4;2;noStructureCont;bars;5;23112;green;green,black,orange,pink,white;210,300,390,480,570;150,180,210,240,270;32;1;1;lymkfw9n1mft0no;true;166.621;390;195;psychophysics;641699;practice_trials;NULL;NULL;NULL;NULL;13_11_2020_15_29_3
12;4;2;noStructureCont;query;5;1470;green;green,black,orange,pink,white;210,300,390,480,570;150,180,210,240,270;49;1;1;lymkfw9n1mft0no;true;16.663;390;195;psychophysics;644178;practice_trial;NULL;NULL;NULL;NULL;13_11_2020_15_29_3
13;6;2;noStructureCont;bars;7;24579;white;black,orange,pink,purple,saddlebrown,white,green;120,210,300,390,480,570,660;150,180,210,240,270,300,330;32;6;6;lymkfw9n1mft0no;true;16.662;390;195;psychophysics;670771;practice_trials;NULL;NULL;NULL;NULL;13_11_2020_15_29_3
13;6;2;noStructureCont;query;7;7266;white;black,orange,pink,purple,saddlebrown,white,green;120,210,300,390,480,570,660;150,180,210,240,270,300,330;54;6;6;lymkfw9n1mft0no;true;166.621;390;195;psychophysics;679042;practice_trial;NULL;NULL;NULL;NULL;13_11_2020_15_29_3
14;0;2;noStructureCont;bars;1;1589;green;green;390;300;32;1;1;lymkfw9n1mft0no;true;16.662;390;195;psychophysics;682643;practice_trials;NULL;NULL;NULL;NULL;13_11_2020_15_29_3
14;0;2;noStructureCont;query;1;1378;green;green;390;300;49;1;1;lymkfw9n1mft0no;true;166.605;390;195;psychophysics;685026;practice_trial;NULL;NULL;NULL;NULL;13_11_2020_15_29_3
NULL;NULL;NULL;NULL;end_of_practice;NULL;4163;NULL;NULL;NULL;NULL;32;NULL;NULL;lymkfw9n1mft0no;NULL;NULL;NULL;NULL;html-keyboard-response;690194;practice_trials;690199;115.033;0.714286;NULL;13_11_2020_15_29_3
1;1;1;noStructureExp;bars;2;2151;purple;purple,white;300,39;300,33;32;1;1;zrk9ubdb0jcwyfh;true;16.668;390;195;psychophysics;130935;practice_trials;NULL;NULL;NULL;NULL;13_11_2020_5_11_34
1;1;1;noStructureExp;query;2;1705;purple;purple,white;300,39;300,33;49;1;1;zrk9ubdb0jcwyfh;true;166.668;390;195;psychophysics;133646;practice_trial;NULL;NULL;NULL;NULL;13_11_2020_5_11_34
2;2;1;noStructureExp;bars;3;2654;saddlebrown;green,blue,saddlebrown;480,390,300;210,240,270;32;3;3;zrk9ubdb0jcwyfh;true;166.672;390;195;psychophysics;138310;practice_trials;NULL;NULL;NULL;NULL;13_11_2020_5_11_34
2;2;1;noStructureExp;query;3;2155;saddlebrown;green,blue,saddlebrown;480,390,300;210,240,270;51;3;3;zrk9ubdb0jcwyfh;true;166.674;390;195;psychophysics;141470;practice_trial;NULL;NULL;NULL;NULL;13_11_2020_5_11_34
3;0;1;noStructureExp;bars;1;135;red;red;390;330;32;1;1;zrk9ubdb0jcwyfh;true;16.669;390;195;psychophysics;143613;practice_trials;NULL;NULL;NULL;NULL;13_11_2020_5_11_34
3;0;1;noStructureExp;query;1;1841;red;red;390;330;49;1;1;zrk9ubdb0jcwyfh;true;166.675;390;195;psychophysics;146461;practice_trial;NULL;NULL;NULL;NULL;13_11_2020_5_11_34
4;6;1;noStructureExp;bars;7;6719;orange;white,black,saddlebrown,orange,purple,green,blue;660,120,480,390,570,210,300;150,180,210,240,270,300,330;32;4;6;zrk9ubdb0jcwyfh;false;166.673;390;195;psychophysics;155205;practice_trials;NULL;NULL;NULL;NULL;13_11_2020_5_11_34
4;6;1;noStructureExp;query;7;3074;orange;white,black,saddlebrown,orange,purple,green,blue;660,120,480,390,570,210,300;150,180,210,240,270,300,330;54;4;6;zrk9ubdb0jcwyfh;false;166.673;390;195;psychophysics;159285;practice_trial;NULL;NULL;NULL;NULL;13_11_2020_5_11_34
5;5;1;noStructureExp;bars;6;5172;white;saddlebrown,blue,yellow,green,white,orange;210,300,570,480,390,120;150,180,210,240,270,300;32;5;3;zrk9ubdb0jcwyfh;false;166.673;390;195;psychophysics;166462;practice_trials;NULL;NULL;NULL;NULL;13_11_2020_5_11_34
5;5;1;noStructureExp;query;6;2401;white;saddlebrown,blue,yellow,green,white,orange;210,300,570,480,390,120;150,180,210,240,270,300;51;5;3;zrk9ubdb0jcwyfh;false;166.676;390;195;psychophysics;169869;practice_trial;NULL;NULL;NULL;NULL;13_11_2020_5_11_34
6;3;1;noStructureExp;bars;4;3288;red;pink,blue,purple,red;300,480,390,210;180,210,240,270;32;4;4;zrk9ubdb0jcwyfh;true;166.673;390;195;psychophysics;175165;practice_trials;NULL;NULL;NULL;NULL;13_11_2020_5_11_34
6;3;1;noStructureExp;query;4;1787;red;pink,blue,purple,red;300,480,390,210;180,210,240,270;52;4;4;zrk9ubdb0jcwyfh;true;166.675;390;195;psychophysics;177957;practice_trial;NULL;NULL;NULL;NULL;13_11_2020_5_11_34
7;4;1;noStructureExp;bars;5;3896;purple;saddlebrown,red,purple,white,blue;210,480,390,300,570;180,210,240,270,300;32;3;3;zrk9ubdb0jcwyfh;true;166.673;390;195;psychophysics;183862;practice_trials;NULL;NULL;NULL;NULL;13_11_2020_5_11_34
7;4;1;noStructureExp;query;5;2548;purple;saddlebrown,red,purple,white,blue;210,480,390,300,570;180,210,240,270,300;51;3;3;zrk9ubdb0jcwyfh;true;166.674;390;195;psychophysics;187414;practice_trial;NULL;NULL;NULL;NULL;13_11_2020_5_11_34
8;1;2;noStructureCont;bars;2;1498;yellow;yellow,red;300,39;300,33;32;1;1;zrk9ubdb0jcwyfh;true;166.675;390;195;psychophysics;194541;practice_trials;NULL;NULL;NULL;NULL;13_11_2020_5_11_34
8;1;2;noStructureCont;query;2;1258;yellow;yellow,red;300,39;300,33;49;1;1;zrk9ubdb0jcwyfh;true;166.678;390;195;psychophysics;196805;practice_trial;NULL;NULL;NULL;NULL;13_11_2020_5_11_34
9;2;2;noStructureCont;bars;3;1742;yellow;red,white,yellow;300,390,480;210,240,270;32;3;3;zrk9ubdb0jcwyfh;true;166.675;390;195;psychophysics;200558;practice_trials;NULL;NULL;NULL;NULL;13_11_2020_5_11_34
9;2;2;noStructureCont;query;3;1353;yellow;red,white,yellow;300,390,480;210,240,270;51;3;3;zrk9ubdb0jcwyfh;true;166.674;390;195;psychophysics;202918;practice_trial;NULL;NULL;NULL;NULL;13_11_2020_5_11_34
10;0;2;noStructureCont;bars;1;1046;black;black;390;330;32;1;1;zrk9ubdb0jcwyfh;true;166.688;390;195;psychophysics;205974;practice_trials;NULL;NULL;NULL;NULL;13_11_2020_5_11_34
10;0;2;noStructureCont;query;1;859;black;black;390;330;49;1;1;zrk9ubdb0jcwyfh;true;166.658;390;195;psychophysics;207838;practice_trial;NULL;NULL;NULL;NULL;13_11_2020_5_11_34
11;5;2;noStructureCont;bars;6;3401;purple;white,orange,blue,yellow,purple,black;120,210,300,390,480,570;150,180,210,240,270,300;32;5;6;zrk9ubdb0jcwyfh;false;166.674;390;195;psychophysics;213246;practice_trials;NULL;NULL;NULL;NULL;13_11_2020_5_11_34
11;5;2;noStructureCont;query;6;2195;purple;white,orange,blue,yellow,purple,black;120,210,300,390,480,570;150,180,210,240,270,300;54;5;6;zrk9ubdb0jcwyfh;false;166.673;390;195;psychophysics;216447;practice_trial;NULL;NULL;NULL;NULL;13_11_2020_5_11_34
12;6;2;noStructureCont;bars;7;5462;purple;orange,white,blue,purple,saddlebrown,pink,red;120,210,300,390,480,570,660;150,180,210,240,270,300,330;32;4;4;zrk9ubdb0jcwyfh;true;166.674;390;195;psychophysics;223918;practice_trials;NULL;NULL;NULL;NULL;13_11_2020_5_11_34
12;6;2;noStructureCont;query;7;1684;purple;orange,white,blue,purple,saddlebrown,pink,red;120,210,300,390,480,570,660;150,180,210,240,270,300,330;52;4;4;zrk9ubdb0jcwyfh;true;166.675;390;195;psychophysics;226606;practice_trial;NULL;NULL;NULL;NULL;13_11_2020_5_11_34
13;4;2;noStructureCont;bars;5;2887;white;blue,pink,white,green,saddlebrown;210,300,390,480,570;180,210,240,270,300;32;3;3;zrk9ubdb0jcwyfh;true;166.672;390;195;psychophysics;231502;practice_trials;NULL;NULL;NULL;NULL;13_11_2020_5_11_34
13;4;2;noStructureCont;query;5;3548;white;blue,pink,white,green,saddlebrown;210,300,390,480,570;180,210,240,270,300;51;3;3;zrk9ubdb0jcwyfh;true;166.673;390;195;psychophysics;236055;practice_trial;NULL;NULL;NULL;NULL;13_11_2020_5_11_34
14;3;2;noStructureCont;bars;4;1982;blue;black,purple,green,blue;210,300,390,480;180,210,240,270;32;4;4;zrk9ubdb0jcwyfh;true;166.674;390;195;psychophysics;240046;practice_trials;NULL;NULL;NULL;NULL;13_11_2020_5_11_34
14;3;2;noStructureCont;query;4;2625;blue;black,purple,green,blue;210,300,390,480;180,210,240,270;52;4;4;zrk9ubdb0jcwyfh;true;166.675;390;195;psychophysics;243678;practice_trial;NULL;NULL;NULL;NULL;13_11_2020_5_11_34
NULL;NULL;NULL;NULL;end_of_practice;NULL;3724;NULL;NULL;NULL;NULL;32;NULL;NULL;zrk9ubdb0jcwyfh;NULL;NULL;NULL;NULL;html-keyboard-response;248406;practice_trials;248417;414.028;0.785714;NULL;13_11_2020_5_11_34
1;3;1;sortStructureCont;bars;1;1745;purple;purple;390;240;32;1;1;bvoobt12gur23nj;true;166.663;390;195;psychophysics;11854;experimental_data;NULL;NULL;NULL;NULL;13_11_2020_15_27_10
1;3;1;sortStructureCont;query;1;1835;purple;purple;390;240;49;1;1;bvoobt12gur23nj;true;166.667;390;195;psychophysics;14694;experimental_data;NULL;NULL;NULL;NULL;13_11_2020_15_27_10
2;5;1;sortStructureCont;bars;2;1462;purple;purple,green;300,39;180,21;32;1;1;bvoobt12gur23nj;true;166.657;390;195;psychophysics;18174;experimental_data;NULL;NULL;NULL;NULL;13_11_2020_15_27_10
2;5;1;sortStructureCont;query;2;1491;purple;purple,green;300,39;180,21;49;1;1;bvoobt12gur23nj;true;166.679;390;195;psychophysics;20670;experimental_data;NULL;NULL;NULL;NULL;13_11_2020_15_27_10
3;28;1;sortStructureCont;bars;6;5975;blue;blue,orange,purple,green,white,red;120,210,300,390,480,570;150,180,210,240,270,300;32;1;1;bvoobt12gur23nj;true;166.666;390;195;psychophysics;28662;experimental_data;NULL;NULL;NULL;NULL;13_11_2020_15_27_10
3;28;1;sortStructureCont;query;6;2076;blue;blue,orange,purple,green,white,red;120,210,300,390,480,570;150,180,210,240,270,300;49;1;1;bvoobt12gur23nj;true;166.673;390;195;psychophysics;31741;experimental_data;NULL;NULL;NULL;NULL;13_11_2020_15_27_10
4;26;1;sortStructureCont;bars;6;6745;pink;orange,pink,red,purple,green,white;120,210,300,390,480,570;180,210,240,270,300,330;32;2;2;bvoobt12gur23nj;true;166.667;390;195;psychophysics;40493;experimental_data;NULL;NULL;NULL;NULL;13_11_2020_15_27_10
4;26;1;sortStructureCont;query;6;2280;pink;orange,pink,red,purple,green,white;120,210,300,390,480,570;180,210,240,270,300,330;50;2;2;bvoobt12gur23nj;true;166.668;390;195;psychophysics;43782;experimental_data;NULL;NULL;NULL;NULL;13_11_2020_15_27_10
5;9;1;sortStructureCont;bars;2;1434;purple;purple,green;300,39;240,27;32;1;1;bvoobt12gur23nj;true;166.665;390;195;psychophysics;47221;experimental_data;NULL;NULL;NULL;NULL;13_11_2020_15_27_10
5;9;1;sortStructureCont;query;2;1299;purple;purple,green;300,39;240,27;49;1;1;bvoobt12gur23nj;true;166.657;390;195;psychophysics;49525;experimental_data;NULL;NULL;NULL;NULL;13_11_2020_15_27_10
6;33;1;sortStructureCont;bars;7;4625;purple;blue,pink,orange,purple,green,white,saddlebrown;120,210,300,390,480,570,660;150,180,210,240,270,300,330;32;4;4;bvoobt12gur23nj;true;166.669;390;195;psychophysics;56157;experimental_data;NULL;NULL;NULL;NULL;13_11_2020_15_27_10
6;33;1;sortStructureCont;query;7;2819;purple;blue,pink,orange,purple,green,white,saddlebrown;120,210,300,390,480,570,660;150,180,210,240,270,300,330;52;4;4;bvoobt12gur23nj;true;166.663;390;195;psychophysics;59982;experimental_data;NULL;NULL;NULL;NULL;13_11_2020_15_27_10
7;2;1;sortStructureCont;bars;1;1761;purple;purple;390;180;32;1;1;bvoobt12gur23nj;true;166.667;390;195;psychophysics;63749;experimental_data;NULL;NULL;NULL;NULL;13_11_2020_15_27_10
7;2;1;sortStructureCont;query;1;2059;purple;purple;390;180;49;1;1;bvoobt12gur23nj;true;166.673;390;195;psychophysics;66814;experimental_data;NULL;NULL;NULL;NULL;13_11_2020_15_27_10
8;23;1;sortStructureCont;bars;5;4704;purple;red,saddlebrown,purple,green,white;210,300,390,480,570;210,240,270,300,330;32;3;3;bvoobt12gur23nj;true;166.664;390;195;psychophysics;73525;experimental_data;NULL;NULL;NULL;NULL;13_11_2020_15_27_10
8;23;1;sortStructureCont;query;5;3883;purple;red,saddlebrown,purple,green,white;210,300,390,480,570;210,240,270,300,330;51;3;3;bvoobt12gur23nj;true;166.668;390;195;psychophysics;78414;experimental_data;NULL;NULL;NULL;NULL;13_11_2020_15_27_10
9;24;1;sortStructureCont;bars;5;3562;yellow;red,yellow,purple,green,white;210,300,390,480,570;150,180,210,240,270;32;2;2;bvoobt12gur23nj;true;166.664;390;195;psychophysics;83981;experimental_data;NULL;NULL;NULL;NULL;13_11_2020_15_27_10
9;24;1;sortStructureCont;query;5;2019;yellow;red,yellow,purple,green,white;210,300,390,480,570;150,180,210,240,270;50;2;2;bvoobt12gur23nj;true;166.668;390;195;psychophysics;87005;experimental_data;NULL;NULL;NULL;NULL;13_11_2020_15_27_10
10;11;1;sortStructureCont;bars;3;1681;green;purple,green,white;300,390,480;180,210,240;32;2;2;bvoobt12gur23nj;true;166.676;390;195;psychophysics;90693;experimental_data;NULL;NULL;NULL;NULL;13_11_2020_15_27_10
10;11;1;sortStructureCont;query;3;1276;green;purple,green,white;300,390,480;180,210,240;50;2;2;bvoobt12gur23nj;true;166.664;390;195;psychophysics;92973;experimental_data;NULL;NULL;NULL;NULL;13_11_2020_15_27_10
11;21;1;sortStructureCont;bars;5;3962;white;purple,green,white,saddlebrown,yellow;210,300,390,480,570;150,180,210,240,270;32;3;3;bvoobt12gur23nj;true;166.665;390;195;psychophysics;98941;experimental_data;NULL;NULL;NULL;NULL;13_11_2020_15_27_10
11;21;1;sortStructureCont;query;5;2116;white;purple,green,white,saddlebrown,yellow;210,300,390,480,570;150,180,210,240,270;51;3;3;bvoobt12gur23nj;true;166.663;390;195;psychophysics;102061;experimental_data;NULL;NULL;NULL;NULL;13_11_2020_15_27_10
12;29;1;sortStructureCont;bars;6;4560;black;purple,green,white,saddlebrown,yellow,black;120,210,300,390,480,570;150,180,210,240,270,300;32;6;6;bvoobt12gur23nj;true;166.664;390;195;psychophysics;108629;experimental_data;NULL;NULL;NULL;NULL;13_11_2020_15_27_10
12;29;1;sortStructureCont;query;6;5797;black;purple,green,white,saddlebrown,yellow,black;120,210,300,390,480,570;150,180,210,240,270,300;54;6;6;bvoobt12gur23nj;true;166.669;390;195;psychophysics;115430;experimental_data;NULL;NULL;NULL;NULL;13_11_2020_15_27_10
13;4;1;sortStructureCont;bars;1;1553;purple;purple;390;180;32;1;1;bvoobt12gur23nj;true;166.676;390;195;psychophysics;118989;experimental_data;NULL;NULL;NULL;NULL;13_11_2020_15_27_10
13;4;1;sortStructureCont;query;1;747;purple;purple;390;180;49;1;1;bvoobt12gur23nj;true;166.666;390;195;psychophysics;120741;experimental_data;NULL;NULL;NULL;NULL;13_11_2020_15_27_10
14;22;1;sortStructureCont;bars;5;2752;green;purple,green,white,black,pink;210,300,390,480,570;180,210,240,270,300;32;2;2;bvoobt12gur23nj;true;166.668;390;195;psychophysics;125501;experimental_data;NULL;NULL;NULL;NULL;13_11_2020_15_27_10
14;22;1;sortStructureCont;query;5;2834;green;purple,green,white,black,pink;210,300,390,480,570;180,210,240,270,300;50;2;2;bvoobt12gur23nj;true;166.672;390;195;psychophysics;129341;experimental_data;NULL;NULL;NULL;NULL;13_11_2020_15_27_10
15;18;1;sortStructureCont;bars;4;3817;green;purple,green,white,yellow;210,300,390,480;150,180,210,240;32;2;2;bvoobt12gur23nj;true;166.666;390;195;psychophysics;135165;experimental_data;NULL;NULL;NULL;NULL;13_11_2020_15_27_10
15;18;1;sortStructureCont;query;4;1396;green;purple,green,white,yellow;210,300,390,480;150,180,210,240;50;2;2;bvoobt12gur23nj;true;166.657;390;195;psychophysics;137573;experimental_data;NULL;NULL;NULL;NULL;13_11_2020_15_27_10
16;13;1;sortStructureCont;bars;3;1299;white;purple,green,white;300,390,480;270,300,330;32;3;3;bvoobt12gur23nj;true;166.674;390;195;psychophysics;140877;experimental_data;NULL;NULL;NULL;NULL;13_11_2020_15_27_10
16;13;1;sortStructureCont;query;3;1387;white;purple,green,white;300,390,480;270,300,330;51;3;3;bvoobt12gur23nj;true;166.661;390;195;psychophysics;143269;experimental_data;NULL;NULL;NULL;NULL;13_11_2020_15_27_10
17;12;1;sortStructureCont;bars;3;1539;purple;purple,green,white;300,390,480;210,240,270;32;1;1;bvoobt12gur23nj;true;166.669;390;195;psychophysics;146814;experimental_data;NULL;NULL;NULL;NULL;13_11_2020_15_27_10
17;12;1;sortStructureCont;query;3;1794;purple;purple,green,white;300,390,480;210,240,270;49;1;1;bvoobt12gur23nj;true;166.666;390;195;psychophysics;149614;experimental_data;NULL;NULL;NULL;NULL;13_11_2020_15_27_10
18;31;1;sortStructureCont;bars;7;4088;pink;purple,green,white,saddlebrown,yellow,blue,pink;120,210,300,390,480,570,660;150,180,210,240,270,300,330;32;7;7;bvoobt12gur23nj;true;166.667;390;195;psychophysics;155710;experimental_data;NULL;NULL;NULL;NULL;13_11_2020_15_27_10
18;31;1;sortStructureCont;query;7;5868;pink;purple,green,white,saddlebrown,yellow,blue,pink;120,210,300,390,480,570,660;150,180,210,240,270,300,330;55;7;7;bvoobt12gur23nj;true;166.665;390;195;psychophysics;162582;experimental_data;NULL;NULL;NULL;NULL;13_11_2020_15_27_10
19;0;1;sortStructureCont;bars;1;938;purple;purple;390;210;32;1;1;bvoobt12gur23nj;true;166.651;390;195;psychophysics;165526;experimental_data;NULL;NULL;NULL;NULL;13_11_2020_15_27_10
19;0;1;sortStructureCont;query;1;620;purple;purple;390;210;49;1;1;bvoobt12gur23nj;true;166.682;390;195;psychophysics;167150;experimental_data;NULL;NULL;NULL;NULL;13_11_2020_15_27_10
20;17;1;sortStructureCont;bars;4;3995;purple;purple,green,white,saddlebrown;210,300,390,480;150,180,210,240;32;1;1;bvoobt12gur23nj;true;166.667;390;195;psychophysics;173150;experimental_data;NULL;NULL;NULL;NULL;13_11_2020_15_27_10
20;17;1;sortStructureCont;query;4;3299;purple;purple,green,white,saddlebrown;210,300,390,480;150,180,210,240;49;1;1;bvoobt12gur23nj;true;166.667;390;195;psychophysics;177454;experimental_data;NULL;NULL;NULL;NULL;13_11_2020_15_27_10
21;1;1;sortStructureCont;bars;1;850;purple;purple;390;330;32;1;1;bvoobt12gur23nj;true;16.667;390;195;psychophysics;180310;experimental_data;NULL;NULL;NULL;NULL;13_11_2020_15_27_10
21;1;1;sortStructureCont;query;1;924;purple;purple;390;330;49;1;1;bvoobt12gur23nj;true;166.673;390;195;psychophysics;182238;experimental_data;NULL;NULL;NULL;NULL;13_11_2020_15_27_10
22;20;1;sortStructureCont;bars;5;3722;purple;orange,red,purple,green,white;210,300,390,480,570;150,180,210,240,270;32;3;3;bvoobt12gur23nj;true;166.666;390;195;psychophysics;187966;experimental_data;NULL;NULL;NULL;NULL;13_11_2020_15_27_10
22;20;1;sortStructureCont;query;5;2587;purple;orange,red,purple,green,white;210,300,390,480,570;150,180,210,240,270;51;3;3;bvoobt12gur23nj;true;166.666;390;195;psychophysics;191558;experimental_data;NULL;NULL;NULL;NULL;13_11_2020_15_27_10
23;32;1;sortStructureCont;bars;7;4069;red;purple,green,white,red,saddlebrown,black,blue;120,210,300,390,480,570,660;150,180,210,240,270,300,330;32;4;4;bvoobt12gur23nj;true;16.667;390;195;psychophysics;197637;experimental_data;NULL;NULL;NULL;NULL;13_11_2020_15_27_10
23;32;1;sortStructureCont;query;7;4989;red;purple,green,white,red,saddlebrown,black,blue;120,210,300,390,480,570,660;150,180,210,240,270,300,330;52;4;4;bvoobt12gur23nj;true;166.666;390;195;psychophysics;203630;experimental_data;NULL;NULL;NULL;NULL;13_11_2020_15_27_10
24;34;1;sortStructureCont;bars;7;4601;green;black,blue,red,saddlebrown,purple,green,white;120,210,300,390,480,570,660;150,180,210,240,270,300,330;32;6;6;bvoobt12gur23nj;true;166.666;390;195;psychophysics;210238;experimental_data;NULL;NULL;NULL;NULL;13_11_2020_15_27_10
24;34;1;sortStructureCont;query;7;5082;green;black,blue,red,saddlebrown,purple,green,white;120,210,300,390,480,570,660;150,180,210,240,270,300,330;54;6;6;bvoobt12gur23nj;true;166.669;390;195;psychophysics;216326;experimental_data;NULL;NULL;NULL;NULL;13_11_2020_15_27_10
25;8;1;sortStructureCont;bars;2;1473;purple;purple,green;300,39;180,21;32;1;1;bvoobt12gur23nj;true;166.661;390;195;psychophysics;219806;experimental_data;NULL;NULL;NULL;NULL;13_11_2020_15_27_10
25;8;1;sortStructureCont;query;2;1172;purple;purple,green;300,39;180,21;49;1;1;bvoobt12gur23nj;true;166.676;390;195;psychophysics;221982;experimental_data;NULL;NULL;NULL;NULL;13_11_2020_15_27_10
26;7;1;sortStructureCont;bars;2;1027;purple;purple,green;300,39;210,24;32;1;1;bvoobt12gur23nj;true;166.655;390;195;psychophysics;225015;experimental_data;NULL;NULL;NULL;NULL;13_11_2020_15_27_10
26;7;1;sortStructureCont;query;2;947;purple;purple,green;300,39;210,24;49;1;1;bvoobt12gur23nj;true;166.652;390;195;psychophysics;226967;experimental_data;NULL;NULL;NULL;NULL;13_11_2020_15_27_10
27;15;1;sortStructureCont;bars;4;4543;green;red,purple,green,white;210,300,390,480;180,210,240,270;32;3;3;bvoobt12gur23nj;true;166.667;390;195;psychophysics;233518;experimental_data;NULL;NULL;NULL;NULL;13_11_2020_15_27_10
27;15;1;sortStructureCont;query;4;1283;green;red,purple,green,white;210,300,390,480;180,210,240,270;51;3;3;bvoobt12gur23nj;true;166.674;390;195;psychophysics;235806;experimental_data;NULL;NULL;NULL;NULL;13_11_2020_15_27_10
28;16;1;sortStructureCont;bars;4;4010;purple;orange,purple,green,white;210,300,390,480;240,270,300,330;32;2;2;bvoobt12gur23nj;true;16.667;390;195;psychophysics;241822;experimental_data;NULL;NULL;NULL;NULL;13_11_2020_15_27_10
28;16;1;sortStructureCont;query;4;2995;purple;orange,purple,green,white;210,300,390,480;240,270,300,330;50;2;2;bvoobt12gur23nj;true;166.665;390;195;psychophysics;245822;experimental_data;NULL;NULL;NULL;NULL;13_11_2020_15_27_10
29;19;1;sortStructureCont;bars;4;4027;red;purple,green,white,red;210,300,390,480;210,240,270,300;32;4;4;bvoobt12gur23nj;true;166.667;390;195;psychophysics;251854;experimental_data;NULL;NULL;NULL;NULL;13_11_2020_15_27_10
29;19;1;sortStructureCont;query;4;1874;red;purple,green,white,red;210,300,390,480;210,240,270,300;52;4;4;bvoobt12gur23nj;true;166.667;390;195;psychophysics;254734;experimental_data;NULL;NULL;NULL;NULL;13_11_2020_15_27_10
30;25;1;sortStructureCont;bars;6;3515;yellow;saddlebrown,yellow,red,purple,green,white;120,210,300,390,480,570;180,210,240,270,300,330;32;2;2;bvoobt12gur23nj;true;166.666;390;195;psychophysics;260254;experimental_data;NULL;NULL;NULL;NULL;13_11_2020_15_27_10
30;25;1;sortStructureCont;query;6;2507;yellow;saddlebrown,yellow,red,purple,green,white;120,210,300,390,480,570;180,210,240,270,300,330;50;2;2;bvoobt12gur23nj;true;166.669;390;195;psychophysics;263766;experimental_data;NULL;NULL;NULL;NULL;13_11_2020_15_27_10
31;14;1;sortStructureCont;bars;3;1577;purple;purple,green,white;300,390,480;210,240,270;32;1;1;bvoobt12gur23nj;true;166.677;390;195;psychophysics;267350;experimental_data;NULL;NULL;NULL;NULL;13_11_2020_15_27_10
31;14;1;sortStructureCont;query;3;2315;purple;purple,green,white;300,390,480;210,240,270;49;1;1;bvoobt12gur23nj;true;166.657;390;195;psychophysics;270669;experimental_data;NULL;NULL;NULL;NULL;13_11_2020_15_27_10
32;6;1;sortStructureCont;bars;2;945;green;purple,green;300,39;180,21;32;2;2;bvoobt12gur23nj;true;166.667;390;195;psychophysics;273621;experimental_data;NULL;NULL;NULL;NULL;13_11_2020_15_27_10
32;6;1;sortStructureCont;query;2;1149;green;purple,green;300,39;180,21;50;2;2;bvoobt12gur23nj;true;166.679;390;195;psychophysics;275774;experimental_data;NULL;NULL;NULL;NULL;13_11_2020_15_27_10
33;10;1;sortStructureCont;bars;3;1067;purple;purple,green,white;300,390,480;270,300,330;32;1;1;bvoobt12gur23nj;true;166.667;390;195;psychophysics;278846;experimental_data;NULL;NULL;NULL;NULL;13_11_2020_15_27_10
33;10;1;sortStructureCont;query;3;1475;purple;purple,green,white;300,390,480;270,300,330;49;1;1;bvoobt12gur23nj;true;16.667;390;195;psychophysics;281325;experimental_data;NULL;NULL;NULL;NULL;13_11_2020_15_27_10
34;27;1;sortStructureCont;bars;6;5113;white;yellow,purple,green,white,red,saddlebrown;120,210,300,390,480,570;150,180,210,240,270,300;32;4;4;bvoobt12gur23nj;true;166.665;390;195;psychophysics;288446;experimental_data;NULL;NULL;NULL;NULL;13_11_2020_15_27_10
34;27;1;sortStructureCont;query;6;4099;white;yellow,purple,green,white,red,saddlebrown;120,210,300,390,480,570;150,180,210,240,270,300;52;4;4;bvoobt12gur23nj;true;166.665;390;195;psychophysics;293549;experimental_data;NULL;NULL;NULL;NULL;13_11_2020_15_27_10
35;30;1;sortStructureCont;bars;7;4010;purple;orange,black,pink,purple,green,white,saddlebrown;120,210,300,390,480,570,660;150,180,210,240,270,300,330;32;4;4;bvoobt12gur23nj;true;166.667;390;195;psychophysics;299566;experimental_data;NULL;NULL;NULL;NULL;13_11_2020_15_27_10
35;30;1;sortStructureCont;query;7;6211;purple;orange,black,pink,purple,green,white,saddlebrown;120,210,300,390,480,570,660;150,180,210,240,270,300,330;52;4;4;bvoobt12gur23nj;true;166.667;390;195;psychophysics;306782;experimental_data;NULL;NULL;NULL;NULL;13_11_2020_15_27_10
NULL;NULL;0;NULL;end_of_block;NULL;7076;NULL;NULL;NULL;NULL;32;NULL;NULL;bvoobt12gur23nj;NULL;NULL;NULL;NULL;html-keyboard-response;314862;experimental_data;314881;524.802;1;NULL;13_11_2020_15_27_10
36;5;2;sortStructureExp;bars;2;1005;yellow;yellow,red;300,39;180,21;32;1;1;bvoobt12gur23nj;true;166.682;390;195;psychophysics;316869;experimental_data;NULL;NULL;NULL;NULL;13_11_2020_15_27_10
36;5;2;sortStructureExp;query;2;1219;yellow;yellow,red;300,39;180,21;49;1;1;bvoobt12gur23nj;true;166.659;390;195;psychophysics;319093;experimental_data;NULL;NULL;NULL;NULL;13_11_2020_15_27_10
37;18;2;sortStructureExp;bars;4;4490;red;yellow,red,orange,white;480,300,210,390;150,180,210,240;32;2;2;bvoobt12gur23nj;true;166.664;390;195;psychophysics;325589;experimental_data;NULL;NULL;NULL;NULL;13_11_2020_15_27_10
37;18;2;sortStructureExp;query;4;1163;red;yellow,red,orange,white;480,300,210,390;150,180,210,240;50;2;2;bvoobt12gur23nj;true;166.671;390;195;psychophysics;327757;experimental_data;NULL;NULL;NULL;NULL;13_11_2020_15_27_10
38;28;2;sortStructureExp;bars;6;4706;green;green,white,purple,yellow,red,orange;300,390,480,120,570,210;150,180,210,240,270,300;32;1;1;bvoobt12gur23nj;true;166.664;390;195;psychophysics;334470;experimental_data;NULL;NULL;NULL;NULL;13_11_2020_15_27_10
38;28;2;sortStructureExp;query;6;4395;green;green,white,purple,yellow,red,orange;300,390,480,120,570,210;150,180,210,240,270,300;49;1;1;bvoobt12gur23nj;true;166.664;390;195;psychophysics;339870;experimental_data;NULL;NULL;NULL;NULL;13_11_2020_15_27_10
39;13;2;sortStructureExp;bars;3;5418;orange;yellow,red,orange;390,300,480;270,300,330;32;3;3;bvoobt12gur23nj;true;166.667;390;195;psychophysics;347294;experimental_data;NULL;NULL;NULL;NULL;13_11_2020_15_27_10
39;13;2;sortStructureExp;query;3;3796;orange;yellow,red,orange;390,300,480;270,300,330;51;3;3;bvoobt12gur23nj;true;166.666;390;195;psychophysics;352094;experimental_data;NULL;NULL;NULL;NULL;13_11_2020_15_27_10
40;29;2;sortStructureExp;bars;6;4474;orange;purple,white,blue,yellow,red,orange;300,210,390,570,480,120;150,180,210,240,270,300;32;6;6;bvoobt12gur23nj;true;166.664;390;195;psychophysics;358574;experimental_data;NULL;NULL;NULL;NULL;13_11_2020_15_27_10
40;29;2;sortStructureExp;query;6;7514;orange;purple,white,blue,yellow,red,orange;300,210,390,570,480,120;150,180,210,240,270,300;54;6;6;bvoobt12gur23nj;true;166.668;390;195;psychophysics;367094;experimental_data;NULL;NULL;NULL;NULL;13_11_2020_15_27_10
41;23;2;sortStructureExp;bars;5;3784;red;green,yellow,red,orange,black;390,480,300,570,210;210,240,270,300,330;32;3;4;bvoobt12gur23nj;false;166.665;390;195;psychophysics;372886;experimental_data;NULL;NULL;NULL;NULL;13_11_2020_15_27_10
41;23;2;sortStructureExp;query;5;7299;red;green,yellow,red,orange,black;390,480,300,570,210;210,240,270,300,330;52;3;4;bvoobt12gur23nj;false;166.665;390;195;psychophysics;381190;experimental_data;NULL;NULL;NULL;NULL;13_11_2020_15_27_10
42;25;2;sortStructureExp;bars;6;6194;white;green,white,black,yellow,red,orange;570,390,120,480,210,300;180,210,240,270,300,330;32;2;2;bvoobt12gur23nj;true;166.668;390;195;psychophysics;389390;experimental_data;NULL;NULL;NULL;NULL;13_11_2020_15_27_10
42;25;2;sortStructureExp;query;6;5555;white;green,white,black,yellow,red,orange;570,390,120,480,210,300;180,210,240,270,300,330;50;2;2;bvoobt12gur23nj;true;166.667;390;195;psychophysics;395949;experimental_data;NULL;NULL;NULL;NULL;13_11_2020_15_27_10
43;8;2;sortStructureExp;bars;2;2979;yellow;yellow,red;390,3;180,21;32;1;1;bvoobt12gur23nj;true;166.666;390;195;psychophysics;400933;experimental_data;NULL;NULL;NULL;NULL;13_11_2020_15_27_10
43;8;2;sortStructureExp;query;2;1363;yellow;yellow,red;390,3;180,21;49;1;1;bvoobt12gur23nj;true;166.668;390;195;psychophysics;403301;experimental_data;NULL;NULL;NULL;NULL;13_11_2020_15_27_10
44;30;2;sortStructureExp;bars;7;6699;orange;white,yellow,red,orange,blue,black,saddlebrown;300,660,210,570,120,480,390;150,180,210,240,270,300,330;32;4;4;bvoobt12gur23nj;true;166.669;390;195;psychophysics;412005;experimental_data;NULL;NULL;NULL;NULL;13_11_2020_15_27_10
44;30;2;sortStructureExp;query;7;10059;orange;white,yellow,red,orange,blue,black,saddlebrown;300,660,210,570,120,480,390;150,180,210,240,270,300,330;52;4;4;bvoobt12gur23nj;true;166.666;390;195;psychophysics;423069;experimental_data;NULL;NULL;NULL;NULL;13_11_2020_15_27_10
45;7;2;sortStructureExp;bars;2;1034;yellow;yellow,red;300,39;210,24;32;1;1;bvoobt12gur23nj;true;166.674;390;195;psychophysics;426109;experimental_data;NULL;NULL;NULL;NULL;13_11_2020_15_27_10
45;7;2;sortStructureExp;query;2;1572;yellow;yellow,red;300,39;210,24;49;1;1;bvoobt12gur23nj;true;16.667;390;195;psychophysics;428685;experimental_data;NULL;NULL;NULL;NULL;13_11_2020_15_27_10
46;21;2;sortStructureExp;bars;5;6841;orange;yellow,red,orange,purple,blue;210,390,300,570,480;150,180,210,240,270;32;3;3;bvoobt12gur23nj;true;166.664;390;195;psychophysics;437533;experimental_data;NULL;NULL;NULL;NULL;13_11_2020_15_27_10
46;21;2;sortStructureExp;query;5;6676;orange;yellow,red,orange,purple,blue;210,390,300,570,480;150,180,210,240,270;51;3;3;bvoobt12gur23nj;true;166.667;390;195;psychophysics;445213;experimental_data;NULL;NULL;NULL;NULL;13_11_2020_15_27_10
47;22;2;sortStructureExp;bars;5;16441;yellow;purple,yellow,red,orange,white;480,300,390,570,210;180,210,240,270,300;32;2;1;bvoobt12gur23nj;false;440.125;390;195;psychophysics;463661;experimental_data;NULL;NULL;NULL;NULL;13_11_2020_15_27_10
47;22;2;sortStructureExp;query;5;3316;yellow;purple,yellow,red,orange,white;480,300,390,570,210;180,210,240,270,300;49;2;1;bvoobt12gur23nj;false;166.667;390;195;psychophysics;467981;experimental_data;NULL;NULL;NULL;NULL;13_11_2020_15_27_10
48;26;2;sortStructureExp;bars;6;9713;pink;black,pink,purple,yellow,red,orange;210,480,390,570,120,300;180,210,240,270,300,330;32;2;2;bvoobt12gur23nj;true;166.667;390;195;psychophysics;479701;experimental_data;NULL;NULL;NULL;NULL;13_11_2020_15_27_10
48;26;2;sortStructureExp;query;6;8820;pink;black,pink,purple,yellow,red,orange;210,480,390,570,120,300;180,210,240,270,300,330;50;2;2;bvoobt12gur23nj;true;166.665;390;195;psychophysics;489525;experimental_data;NULL;NULL;NULL;NULL;13_11_2020_15_27_10
49;12;2;sortStructureExp;bars;3;5905;yellow;yellow,red,orange;390,300,480;210,240,270;32;1;1;bvoobt12gur23nj;true;166.666;390;195;psychophysics;497437;experimental_data;NULL;NULL;NULL;NULL;13_11_2020_15_27_10
49;12;2;sortStructureExp;query;3;1130;yellow;yellow,red,orange;390,300,480;210,240,270;49;1;1;bvoobt12gur23nj;true;166.653;390;195;psychophysics;499573;experimental_data;NULL;NULL;NULL;NULL;13_11_2020_15_27_10
50;2;2;sortStructureExp;bars;1;1162;yellow;yellow;390;180;32;1;1;bvoobt12gur23nj;true;166.679;390;195;psychophysics;502741;experimental_data;NULL;NULL;NULL;NULL;13_11_2020_15_27_10
50;2;2;sortStructureExp;query;1;660;yellow;yellow;390;180;49;1;1;bvoobt12gur23nj;true;166.663;390;195;psychophysics;504405;experimental_data;NULL;NULL;NULL;NULL;13_11_2020_15_27_10
51;14;2;sortStructureExp;bars;3;2147;yellow;yellow,red,orange;390,480,300;210,240,270;32;1;1;bvoobt12gur23nj;true;166.667;390;195;psychophysics;508565;experimental_data;NULL;NULL;NULL;NULL;13_11_2020_15_27_10
51;14;2;sortStructureExp;query;3;2682;yellow;yellow,red,orange;390,480,300;210,240,270;49;1;1;bvoobt12gur23nj;true;166.672;390;195;psychophysics;512253;experimental_data;NULL;NULL;NULL;NULL;13_11_2020_15_27_10
52;34;2;sortStructureExp;bars;7;3402;pink;saddlebrown,yellow,red,orange,purple,pink,green;300,570,480,120,390,660,210;150,180,210,240,270,300,330;32;6;6;bvoobt12gur23nj;true;166.667;390;195;psychophysics;517661;experimental_data;NULL;NULL;NULL;NULL;13_11_2020_15_27_10
52;34;2;sortStructureExp;query;7;8732;pink;saddlebrown,yellow,red,orange,purple,pink,green;300,570,480,120,390,660,210;150,180,210,240,270,300,330;54;6;6;bvoobt12gur23nj;true;166.665;390;195;psychophysics;527397;experimental_data;NULL;NULL;NULL;NULL;13_11_2020_15_27_10
53;27;2;sortStructureExp;bars;6;7279;red;saddlebrown,purple,yellow,red,orange,black;570,390,480,300,210,120;150,180,210,240,270,300;32;4;4;bvoobt12gur23nj;true;166.666;390;195;psychophysics;536685;experimental_data;NULL;NULL;NULL;NULL;13_11_2020_15_27_10
53;27;2;sortStructureExp;query;6;9116;red;saddlebrown,purple,yellow,red,orange,black;570,390,480,300,210,120;150,180,210,240,270,300;52;4;4;bvoobt12gur23nj;true;166.667;390;195;psychophysics;546805;experimental_data;NULL;NULL;NULL;NULL;13_11_2020_15_27_10
54;11;2;sortStructureExp;bars;3;3722;red;yellow,red,orange;390,480,300;180,210,240;32;2;2;bvoobt12gur23nj;true;166.668;390;195;psychophysics;552533;experimental_data;NULL;NULL;NULL;NULL;13_11_2020_15_27_10
54;11;2;sortStructureExp;query;3;1208;red;yellow,red,orange;390,480,300;180,210,240;50;2;2;bvoobt12gur23nj;true;166.674;390;195;psychophysics;554757;experimental_data;NULL;NULL;NULL;NULL;13_11_2020_15_27_10
55;16;2;sortStructureExp;bars;4;5835;yellow;purple,yellow,red,orange;480,300,210,390;240,270,300,330;32;2;2;bvoobt12gur23nj;true;166.667;390;195;psychophysics;562598;experimental_data;NULL;NULL;NULL;NULL;13_11_2020_15_27_10
55;16;2;sortStructureExp;query;4;5450;yellow;purple,yellow,red,orange;480,300,210,390;240,270,300,330;50;2;2;bvoobt12gur23nj;true;166.667;390;195;psychophysics;569053;experimental_data;NULL;NULL;NULL;NULL;13_11_2020_15_27_10
56;6;2;sortStructureExp;bars;2;1273;red;yellow,red;300,39;180,21;32;2;2;bvoobt12gur23nj;true;166.669;390;195;psychophysics;572334;experimental_data;NULL;NULL;NULL;NULL;13_11_2020_15_27_10
56;6;2;sortStructureExp;query;2;1652;red;yellow,red;300,39;180,21;50;2;2;bvoobt12gur23nj;true;166.667;390;195;psychophysics;574990;experimental_data;NULL;NULL;NULL;NULL;13_11_2020_15_27_10
57;1;2;sortStructureExp;bars;1;1367;yellow;yellow;390;330;32;1;1;bvoobt12gur23nj;true;166.666;390;195;psychophysics;578366;experimental_data;NULL;NULL;NULL;NULL;13_11_2020_15_27_10
57;1;2;sortStructureExp;query;1;571;yellow;yellow;390;330;49;1;1;bvoobt12gur23nj;true;166.663;390;195;psychophysics;579942;experimental_data;NULL;NULL;NULL;NULL;13_11_2020_15_27_10
58;32;2;sortStructureExp;bars;7;7736;red;blue,saddlebrown,yellow,red,orange,pink,white;480,120,570,660,300,390,210;150,180,210,240,270,300,330;32;4;2;bvoobt12gur23nj;false;166.667;390;195;psychophysics;589686;experimental_data;NULL;NULL;NULL;NULL;13_11_2020_15_27_10
58;32;2;sortStructureExp;query;7;3299;red;blue,saddlebrown,yellow,red,orange,pink,white;480,120,570,660,300,390,210;150,180,210,240,270,300,330;50;4;2;bvoobt12gur23nj;false;166.665;390;195;psychophysics;593990;experimental_data;NULL;NULL;NULL;NULL;13_11_2020_15_27_10
59;4;2;sortStructureExp;bars;1;1051;yellow;yellow;390;180;32;1;1;bvoobt12gur23nj;true;166.663;390;195;psychophysics;597046;experimental_data;NULL;NULL;NULL;NULL;13_11_2020_15_27_10
59;4;2;sortStructureExp;query;1;568;yellow;yellow;390;180;49;1;1;bvoobt12gur23nj;true;166.662;390;195;psychophysics;598622;experimental_data;NULL;NULL;NULL;NULL;13_11_2020_15_27_10
60;9;2;sortStructureExp;bars;2;1090;yellow;yellow,red;390,3;240,27;32;1;1;bvoobt12gur23nj;true;166.661;390;195;psychophysics;601717;experimental_data;NULL;NULL;NULL;NULL;13_11_2020_15_27_10
60;9;2;sortStructureExp;query;2;964;yellow;yellow,red;390,3;240,27;49;1;1;bvoobt12gur23nj;true;166.668;390;195;psychophysics;603686;experimental_data;NULL;NULL;NULL;NULL;13_11_2020_15_27_10
61;20;2;sortStructureExp;bars;5;4681;yellow;purple,black,yellow,red,orange;300,390,570,210,480;150,180,210,240,270;32;3;3;bvoobt12gur23nj;true;166.668;390;195;psychophysics;610374;experimental_data;NULL;NULL;NULL;NULL;13_11_2020_15_27_10
61;20;2;sortStructureExp;query;5;6971;yellow;purple,black,yellow,red,orange;300,390,570,210,480;150,180,210,240,270;51;3;3;bvoobt12gur23nj;true;166.667;390;195;psychophysics;618350;experimental_data;NULL;NULL;NULL;NULL;13_11_2020_15_27_10
62;3;2;sortStructureExp;bars;1;874;yellow;yellow;390;240;32;1;1;bvoobt12gur23nj;true;166.667;390;195;psychophysics;621230;experimental_data;NULL;NULL;NULL;NULL;13_11_2020_15_27_10
62;3;2;sortStructureExp;query;1;412;yellow;yellow;390;240;49;1;1;bvoobt12gur23nj;true;166.637;390;195;psychophysics;622646;experimental_data;NULL;NULL;NULL;NULL;13_11_2020_15_27_10
63;31;2;sortStructureExp;bars;7;4856;orange;blue,green,black,pink,yellow,red,orange;570,660,210,390,120,300,480;150,180,210,240,270,300,330;32;7;3;bvoobt12gur23nj;false;166.664;390;195;psychophysics;629510;experimental_data;NULL;NULL;NULL;NULL;13_11_2020_15_27_10
63;31;2;sortStructureExp;query;7;1339;orange;blue,green,black,pink,yellow,red,orange;570,660,210,390,120,300,480;150,180,210,240,270,300,330;51;7;3;bvoobt12gur23nj;false;166.677;390;195;psychophysics;631853;experimental_data;NULL;NULL;NULL;NULL;13_11_2020_15_27_10
64;17;2;sortStructureExp;bars;4;10331;white;white,yellow,red,orange;390,300,210,480;150,180,210,240;32;1;1;bvoobt12gur23nj;true;166.667;390;195;psychophysics;644189;experimental_data;NULL;NULL;NULL;NULL;13_11_2020_15_27_10
64;17;2;sortStructureExp;query;4;2715;white;white,yellow,red,orange;390,300,210,480;150,180,210,240;49;1;1;bvoobt12gur23nj;true;166.667;390;195;psychophysics;647909;experimental_data;NULL;NULL;NULL;NULL;13_11_2020_15_27_10
65;15;2;sortStructureExp;bars;4;5321;orange;yellow,red,orange,saddlebrown;300,480,390,210;180,210,240,270;32;3;3;bvoobt12gur23nj;true;166.665;390;195;psychophysics;655237;experimental_data;NULL;NULL;NULL;NULL;13_11_2020_15_27_10
65;15;2;sortStructureExp;query;4;3660;orange;yellow,red,orange,saddlebrown;300,480,390,210;180,210,240,270;51;3;3;bvoobt12gur23nj;true;166.668;390;195;psychophysics;659901;experimental_data;NULL;NULL;NULL;NULL;13_11_2020_15_27_10
66;24;2;sortStructureExp;bars;5;5426;purple;pink,purple,yellow,red,orange;570,480,210,390,300;150,180,210,240,270;32;2;2;bvoobt12gur23nj;true;166.666;390;195;psychophysics;667333;experimental_data;NULL;NULL;NULL;NULL;13_11_2020_15_27_10
66;24;2;sortStructureExp;query;5;2667;purple;pink,purple,yellow,red,orange;570,480,210,390,300;150,180,210,240,270;50;2;2;bvoobt12gur23nj;true;166.666;390;195;psychophysics;671005;experimental_data;NULL;NULL;NULL;NULL;13_11_2020_15_27_10
67;33;2;sortStructureExp;bars;7;3656;yellow;purple,pink,saddlebrown,yellow,red,orange,blue;660,390,570,300,120,210,480;150,180,210,240,270,300,330;32;4;4;bvoobt12gur23nj;true;166.665;390;195;psychophysics;676669;experimental_data;NULL;NULL;NULL;NULL;13_11_2020_15_27_10
67;33;2;sortStructureExp;query;7;7460;yellow;purple,pink,saddlebrown,yellow,red,orange,blue;660,390,570,300,120,210,480;150,180,210,240,270,300,330;52;4;4;bvoobt12gur23nj;true;166.669;390;195;psychophysics;685133;experimental_data;NULL;NULL;NULL;NULL;13_11_2020_15_27_10
68;19;2;sortStructureExp;bars;4;3355;orange;pink,yellow,red,orange;210,480,300,390;210,240,270,300;32;4;4;bvoobt12gur23nj;true;166.663;390;195;psychophysics;690493;experimental_data;NULL;NULL;NULL;NULL;13_11_2020_15_27_10
68;19;2;sortStructureExp;query;4;3917;orange;pink,yellow,red,orange;210,480,300,390;210,240,270,300;52;4;4;bvoobt12gur23nj;true;166.666;390;195;psychophysics;695414;experimental_data;NULL;NULL;NULL;NULL;13_11_2020_15_27_10
69;10;2;sortStructureExp;bars;3;5296;yellow;yellow,red,orange;300,480,390;270,300,330;32;1;1;bvoobt12gur23nj;true;166.664;390;195;psychophysics;702717;experimental_data;NULL;NULL;NULL;NULL;13_11_2020_15_27_10
69;10;2;sortStructureExp;query;3;1132;yellow;yellow,red,orange;300,480,390;270,300,330;49;1;1;bvoobt12gur23nj;true;166.664;390;195;psychophysics;704853;experimental_data;NULL;NULL;NULL;NULL;13_11_2020_15_27_10
70;0;2;sortStructureExp;bars;1;931;yellow;yellow;390;210;32;1;1;bvoobt12gur23nj;true;166.685;390;195;psychophysics;707789;experimental_data;NULL;NULL;NULL;NULL;13_11_2020_15_27_10
70;0;2;sortStructureExp;query;1;532;yellow;yellow;390;210;49;1;1;bvoobt12gur23nj;true;16.667;390;195;psychophysics;709325;experimental_data;NULL;NULL;NULL;NULL;13_11_2020_15_27_10
NULL;NULL;0;NULL;end_of_block;NULL;2836;NULL;NULL;NULL;NULL;32;NULL;NULL;bvoobt12gur23nj;NULL;NULL;NULL;NULL;html-keyboard-response;713165;experimental_data;713184;118.864;0.885714;NULL;13_11_2020_15_27_10
71;31;3;queryStructureExp;bars;7;4548;black;saddlebrown,yellow,orange,white,green,purple,black;570,660,210,390,120,300,480;150,180,210,240,270,300,330;32;7;7;bvoobt12gur23nj;true;16.667;390;195;psychophysics;718717;experimental_data;NULL;NULL;NULL;NULL;13_11_2020_15_27_10
71;31;3;queryStructureExp;query;7;7092;black;saddlebrown,yellow,orange,white,green,purple,black;570,660,210,390,120,300,480;150,180,210,240,270,300,330;55;7;7;bvoobt12gur23nj;true;166.667;390;195;psychophysics;726814;experimental_data;NULL;NULL;NULL;NULL;13_11_2020_15_27_10
72;25;3;queryStructureExp;bars;6;4234;red;purple,white,black,green,orange,red;570,390,120,480,210,300;180,210,240,270,300,330;32;6;5;bvoobt12gur23nj;false;166.667;390;195;psychophysics;733053;experimental_data;NULL;NULL;NULL;NULL;13_11_2020_15_27_10
72;25;3;queryStructureExp;query;6;2227;red;purple,white,black,green,orange,red;570,390,120,480,210,300;180,210,240,270,300,330;53;6;5;bvoobt12gur23nj;false;166.672;390;195;psychophysics;736285;experimental_data;NULL;NULL;NULL;NULL;13_11_2020_15_27_10
73;30;3;queryStructureExp;bars;7;5379;saddlebrown;yellow,red,blue,pink,black,purple,saddlebrown;300,660,210,570,120,480,390;150,180,210,240,270,300,330;32;7;7;bvoobt12gur23nj;true;166.667;390;195;psychophysics;743669;experimental_data;NULL;NULL;NULL;NULL;13_11_2020_15_27_10
73;30;3;queryStructureExp;query;7;5882;saddlebrown;yellow,red,blue,pink,black,purple,saddlebrown;300,660,210,570,120,480,390;150,180,210,240,270,300,330;55;7;7;bvoobt12gur23nj;true;166.669;390;195;psychophysics;750557;experimental_data;NULL;NULL;NULL;NULL;13_11_2020_15_27_10
74;26;3;queryStructureExp;bars;6;5175;black;orange,purple,pink,blue,green,black;210,480,390,570,120,300;180,210,240,270,300,330;32;6;6;bvoobt12gur23nj;true;16.667;390;195;psychophysics;757742;experimental_data;NULL;NULL;NULL;NULL;13_11_2020_15_27_10
74;26;3;queryStructureExp;query;6;4178;black;orange,purple,pink,blue,green,black;210,480,390,570,120,300;180,210,240,270,300,330;54;6;6;bvoobt12gur23nj;true;166.668;390;195;psychophysics;762925;experimental_data;NULL;NULL;NULL;NULL;13_11_2020_15_27_10
75;6;3;queryStructureExp;bars;2;1369;saddlebrown;red,saddlebrown;300,39;180,21;32;2;2;bvoobt12gur23nj;true;166.669;390;195;psychophysics;766309;experimental_data;NULL;NULL;NULL;NULL;13_11_2020_15_27_10
75;6;3;queryStructureExp;query;2;1203;saddlebrown;red,saddlebrown;300,39;180,21;50;2;2;bvoobt12gur23nj;true;166.668;390;195;psychophysics;768518;experimental_data;NULL;NULL;NULL;NULL;13_11_2020_15_27_10
76;29;3;queryStructureExp;bars;6;5561;orange;purple,red,saddlebrown,white,black,orange;300,210,390,570,480,120;150,180,210,240,270,300;32;6;6;bvoobt12gur23nj;true;166.665;390;195;psychophysics;776085;experimental_data;NULL;NULL;NULL;NULL;13_11_2020_15_27_10
76;29;3;queryStructureExp;query;6;6620;orange;purple,red,saddlebrown,white,black,orange;300,210,390,570,480,120;150,180,210,240,270,300;54;6;6;bvoobt12gur23nj;true;166.667;390;195;psychophysics;783709;experimental_data;NULL;NULL;NULL;NULL;13_11_2020_15_27_10
77;27;3;queryStructureExp;bars;6;4202;white;red,saddlebrown,pink,orange,yellow,white;570,390,480,300,210,120;150,180,210,240,270,300;32;6;6;bvoobt12gur23nj;true;166.669;390;195;psychophysics;789917;experimental_data;NULL;NULL;NULL;NULL;13_11_2020_15_27_10
77;27;3;queryStructureExp;query;6;3594;white;red,saddlebrown,pink,orange,yellow,white;570,390,480,300,210,120;150,180,210,240,270,300;54;6;6;bvoobt12gur23nj;true;16.667;390;195;psychophysics;794517;experimental_data;NULL;NULL;NULL;NULL;13_11_2020_15_27_10
78;33;3;queryStructureExp;bars;7;4179;orange;pink,saddlebrown,blue,green,white,purple,orange;660,390,570,300,120,210,480;150,180,210,240,270,300,330;32;7;7;bvoobt12gur23nj;true;166.666;390;195;psychophysics;800701;experimental_data;NULL;NULL;NULL;NULL;13_11_2020_15_27_10
78;33;3;queryStructureExp;query;7;6051;orange;pink,saddlebrown,blue,green,white,purple,orange;660,390,570,300,120,210,480;150,180,210,240,270,300,330;55;7;7;bvoobt12gur23nj;true;166.667;390;195;psychophysics;807758;experimental_data;NULL;NULL;NULL;NULL;13_11_2020_15_27_10
79;14;3;queryStructureExp;bars;3;2482;red;saddlebrown,white,red;390,480,300;210,240,270;32;3;3;bvoobt12gur23nj;true;166.667;390;195;psychophysics;812245;experimental_data;NULL;NULL;NULL;NULL;13_11_2020_15_27_10
79;14;3;queryStructureExp;query;3;1163;red;saddlebrown,white,red;390,480,300;210,240,270;51;3;3;bvoobt12gur23nj;true;166.673;390;195;psychophysics;814415;experimental_data;NULL;NULL;NULL;NULL;13_11_2020_15_27_10
80;5;3;queryStructureExp;bars;2;799;blue;orange,blue;300,39;180,21;32;2;2;bvoobt12gur23nj;true;166.661;390;195;psychophysics;817221;experimental_data;NULL;NULL;NULL;NULL;13_11_2020_15_27_10
80;5;3;queryStructureExp;query;2;2077;blue;orange,blue;300,39;180,21;50;2;2;bvoobt12gur23nj;true;166.661;390;195;psychophysics;820301;experimental_data;NULL;NULL;NULL;NULL;13_11_2020_15_27_10
81;4;3;queryStructureExp;bars;1;730;green;green;390;180;32;1;1;bvoobt12gur23nj;true;166.662;390;195;psychophysics;823037;experimental_data;NULL;NULL;NULL;NULL;13_11_2020_15_27_10
81;4;3;queryStructureExp;query;1;1188;green;green;390;180;49;1;1;bvoobt12gur23nj;true;166.668;390;195;psychophysics;825229;experimental_data;NULL;NULL;NULL;NULL;13_11_2020_15_27_10
82;19;3;queryStructureExp;bars;4;4386;orange;white,blue,purple,orange;210,480,300,390;210,240,270,300;32;4;4;bvoobt12gur23nj;true;166.665;390;195;psychophysics;831629;experimental_data;NULL;NULL;NULL;NULL;13_11_2020_15_27_10
82;19;3;queryStructureExp;query;4;3250;orange;white,blue,purple,orange;210,480,300,390;210,240,270,300;52;4;4;bvoobt12gur23nj;true;166.663;390;195;psychophysics;835885;experimental_data;NULL;NULL;NULL;NULL;13_11_2020_15_27_10
83;0;3;queryStructureExp;bars;1;1059;blue;blue;390;210;32;1;1;bvoobt12gur23nj;true;166.667;390;195;psychophysics;838949;experimental_data;NULL;NULL;NULL;NULL;13_11_2020_15_27_10
83;0;3;queryStructureExp;query;1;467;blue;blue;390;210;49;1;1;bvoobt12gur23nj;true;166.694;390;195;psychophysics;840421;experimental_data;NULL;NULL;NULL;NULL;13_11_2020_15_27_10
84;20;3;queryStructureExp;bars;5;4689;orange;white,green,red,saddlebrown,orange;300,390,570,210,480;150,180,210,240,270;32;5;4;bvoobt12gur23nj;false;166.664;390;195;psychophysics;847117;experimental_data;NULL;NULL;NULL;NULL;13_11_2020_15_27_10
84;20;3;queryStructureExp;query;5;2179;orange;white,green,red,saddlebrown,orange;300,390,570,210,480;150,180,210,240,270;52;5;4;bvoobt12gur23nj;false;166.667;390;195;psychophysics;850301;experimental_data;NULL;NULL;NULL;NULL;13_11_2020_15_27_10
85;22;3;queryStructureExp;bars;5;5780;white;orange,blue,black,green,white;480,300,390,570,210;180,210,240,270,300;32;5;2;bvoobt12gur23nj;false;166.669;390;195;psychophysics;858085;experimental_data;NULL;NULL;NULL;NULL;13_11_2020_15_27_10
85;22;3;queryStructureExp;query;5;1843;white;orange,blue,black,green,white;480,300,390,570,210;180,210,240,270,300;50;5;2;bvoobt12gur23nj;false;166.662;390;195;psychophysics;860941;experimental_data;NULL;NULL;NULL;NULL;13_11_2020_15_27_10
86;28;3;queryStructureExp;bars;6;3554;pink;white,yellow,orange,red,black,pink;300,390,480,120,570,210;150,180,210,240,270,300;32;6;5;bvoobt12gur23nj;false;166.666;390;195;psychophysics;866501;experimental_data;NULL;NULL;NULL;NULL;13_11_2020_15_27_10
86;28;3;queryStructureExp;query;6;9709;pink;white,yellow,orange,red,black,pink;300,390,480,120,570,210;150,180,210,240,270,300;53;6;5;bvoobt12gur23nj;false;166.667;390;195;psychophysics;877214;experimental_data;NULL;NULL;NULL;NULL;13_11_2020_15_27_10
87;2;3;queryStructureExp;bars;1;3543;black;black;390;180;32;1;1;bvoobt12gur23nj;true;166.669;390;195;psychophysics;882765;experimental_data;NULL;NULL;NULL;NULL;13_11_2020_15_27_10
87;2;3;queryStructureExp;query;1;604;black;black;390;180;49;1;1;bvoobt12gur23nj;true;166.683;390;195;psychophysics;884373;experimental_data;NULL;NULL;NULL;NULL;13_11_2020_15_27_10
88;17;3;queryStructureExp;bars;4;6658;blue;saddlebrown,yellow,black,blue;390,300,210,480;150,180,210,240;32;4;4;bvoobt12gur23nj;true;166.668;390;195;psychophysics;893037;experimental_data;NULL;NULL;NULL;NULL;13_11_2020_15_27_10
88;17;3;queryStructureExp;query;4;2796;blue;saddlebrown,yellow,black,blue;390,300,210,480;150,180,210,240;52;4;4;bvoobt12gur23nj;true;166.663;390;195;psychophysics;896837;experimental_data;NULL;NULL;NULL;NULL;13_11_2020_15_27_10
89;23;3;queryStructureExp;bars;5;7274;pink;black,green,orange,saddlebrown,pink;390,480,300,570,210;210,240,270,300,330;32;5;5;bvoobt12gur23nj;true;166.667;390;195;psychophysics;906117;experimental_data;NULL;NULL;NULL;NULL;13_11_2020_15_27_10
89;23;3;queryStructureExp;query;5;4306;pink;black,green,orange,saddlebrown,pink;390,480,300,570,210;210,240,270,300,330;53;5;5;bvoobt12gur23nj;true;166.665;390;195;psychophysics;911429;experimental_data;NULL;NULL;NULL;NULL;13_11_2020_15_27_10
90;16;3;queryStructureExp;bars;4;2448;green;red,black,white,green;480,300,210,390;240,270,300,330;32;4;4;bvoobt12gur23nj;true;16.667;390;195;psychophysics;915885;experimental_data;NULL;NULL;NULL;NULL;13_11_2020_15_27_10
90;16;3;queryStructureExp;query;4;1563;green;red,black,white,green;480,300,210,390;240,270,300,330;52;4;4;bvoobt12gur23nj;true;166.669;390;195;psychophysics;918453;experimental_data;NULL;NULL;NULL;NULL;13_11_2020_15_27_10
91;34;3;queryStructureExp;bars;7;3882;red;purple,green,black,blue,white,orange,red;300,570,480,120,390,660,210;150,180,210,240,270,300,330;32;7;5;bvoobt12gur23nj;false;166.666;390;195;psychophysics;924341;experimental_data;NULL;NULL;NULL;NULL;13_11_2020_15_27_10
91;34;3;queryStructureExp;query;7;7469;red;purple,green,black,blue,white,orange,red;300,570,480,120,390,660,210;150,180,210,240,270,300,330;53;7;5;bvoobt12gur23nj;false;166.667;390;195;psychophysics;932814;experimental_data;NULL;NULL;NULL;NULL;13_11_2020_15_27_10
92;9;3;queryStructureExp;bars;2;1024;yellow;blue,yellow;390,3;240,27;32;2;2;bvoobt12gur23nj;true;166.655;390;195;psychophysics;935845;experimental_data;NULL;NULL;NULL;NULL;13_11_2020_15_27_10
92;9;3;queryStructureExp;query;2;2005;yellow;blue,yellow;390,3;240,27;50;2;2;bvoobt12gur23nj;true;166.671;390;195;psychophysics;938853;experimental_data;NULL;NULL;NULL;NULL;13_11_2020_15_27_10
93;3;3;queryStructureExp;bars;1;818;white;white;390;240;32;1;1;bvoobt12gur23nj;true;166.665;390;195;psychophysics;941677;experimental_data;NULL;NULL;NULL;NULL;13_11_2020_15_27_10
93;3;3;queryStructureExp;query;1;460;white;white;390;240;49;1;1;bvoobt12gur23nj;true;166.695;390;195;psychophysics;943141;experimental_data;NULL;NULL;NULL;NULL;13_11_2020_15_27_10
94;24;3;queryStructureExp;bars;5;6704;orange;purple,blue,red,yellow,orange;570,480,210,390,300;150,180,210,240,270;32;5;5;bvoobt12gur23nj;true;166.665;390;195;psychophysics;951853;experimental_data;NULL;NULL;NULL;NULL;13_11_2020_15_27_10
94;24;3;queryStructureExp;query;5;9602;orange;purple,blue,red,yellow,orange;570,480,210,390,300;150,180,210,240,270;53;5;5;bvoobt12gur23nj;true;166.667;390;195;psychophysics;962461;experimental_data;NULL;NULL;NULL;NULL;13_11_2020_15_27_10
95;18;3;queryStructureExp;bars;4;7458;yellow;green,white,orange,yellow;480,300,210,390;150,180,210,240;32;4;4;bvoobt12gur23nj;true;166.669;390;195;psychophysics;971925;experimental_data;NULL;NULL;NULL;NULL;13_11_2020_15_27_10
95;18;3;queryStructureExp;query;4;1228;yellow;green,white,orange,yellow;480,300,210,390;150,180,210,240;52;4;4;bvoobt12gur23nj;true;166.676;390;195;psychophysics;974157;experimental_data;NULL;NULL;NULL;NULL;13_11_2020_15_27_10
96;8;3;queryStructureExp;bars;2;794;purple;green,purple;390,3;180,21;32;2;2;bvoobt12gur23nj;true;166.657;390;195;psychophysics;976957;experimental_data;NULL;NULL;NULL;NULL;13_11_2020_15_27_10
96;8;3;queryStructureExp;query;2;1036;purple;green,purple;390,3;180,21;50;2;2;bvoobt12gur23nj;true;16.667;390;195;psychophysics;978998;experimental_data;NULL;NULL;NULL;NULL;13_11_2020_15_27_10
97;15;3;queryStructureExp;bars;4;4553;green;saddlebrown,pink,purple,green;300,480,390,210;180,210,240,270;32;4;2;bvoobt12gur23nj;false;166.667;390;195;psychophysics;985557;experimental_data;NULL;NULL;NULL;NULL;13_11_2020_15_27_10
97;15;3;queryStructureExp;query;4;2036;green;saddlebrown,pink,purple,green;300,480,390,210;180,210,240,270;50;4;2;bvoobt12gur23nj;false;166.667;390;195;psychophysics;988598;experimental_data;NULL;NULL;NULL;NULL;13_11_2020_15_27_10
98;7;3;queryStructureExp;bars;2;737;purple;saddlebrown,purple;300,39;210,24;32;2;2;bvoobt12gur23nj;true;16.667;390;195;psychophysics;991341;experimental_data;NULL;NULL;NULL;NULL;13_11_2020_15_27_10
98;7;3;queryStructureExp;query;2;1219;purple;saddlebrown,purple;300,39;210,24;50;2;2;bvoobt12gur23nj;true;16.667;390;195;psychophysics;993565;experimental_data;NULL;NULL;NULL;NULL;13_11_2020_15_27_10
99;12;3;queryStructureExp;bars;3;3961;orange;purple,green,orange;390,300,480;210,240,270;32;3;3;bvoobt12gur23nj;true;166.666;390;195;psychophysics;999534;experimental_data;NULL;NULL;NULL;NULL;13_11_2020_15_27_10
99;12;3;queryStructureExp;query;3;1443;orange;purple,green,orange;390,300,480;210,240,270;51;3;3;bvoobt12gur23nj;true;166.666;390;195;psychophysics;1001981;experimental_data;NULL;NULL;NULL;NULL;13_11_2020_15_27_10
100;11;3;queryStructureExp;bars;3;3567;green;white,orange,green;390,480,300;180,210,240;32;3;3;bvoobt12gur23nj;true;166.666;390;195;psychophysics;1007557;experimental_data;NULL;NULL;NULL;NULL;13_11_2020_15_27_10
100;11;3;queryStructureExp;query;3;1748;green;white,orange,green;390,480,300;180,210,240;51;3;3;bvoobt12gur23nj;true;166.675;390;195;psychophysics;1010309;experimental_data;NULL;NULL;NULL;NULL;13_11_2020_15_27_10
101;13;3;queryStructureExp;bars;3;3401;pink;black,red,pink;390,300,480;270,300,330;32;3;3;bvoobt12gur23nj;true;166.667;390;195;psychophysics;1015717;experimental_data;NULL;NULL;NULL;NULL;13_11_2020_15_27_10
101;13;3;queryStructureExp;query;3;2124;pink;black,red,pink;390,300,480;270,300,330;51;3;3;bvoobt12gur23nj;true;166.668;390;195;psychophysics;1018845;experimental_data;NULL;NULL;NULL;NULL;13_11_2020_15_27_10
102;1;3;queryStructureExp;bars;1;745;orange;orange;390;330;32;1;1;bvoobt12gur23nj;true;166.667;390;195;psychophysics;1021597;experimental_data;NULL;NULL;NULL;NULL;13_11_2020_15_27_10
102;1;3;queryStructureExp;query;1;450;orange;orange;390;330;49;1;1;bvoobt12gur23nj;true;166.645;390;195;psychophysics;1023053;experimental_data;NULL;NULL;NULL;NULL;13_11_2020_15_27_10
103;32;3;queryStructureExp;bars;7;6345;green;black,red,white,orange,blue,yellow,green;480,120,570,660,300,390,210;150,180,210,240,270,300,330;32;7;7;bvoobt12gur23nj;true;166.669;390;195;psychophysics;1031405;experimental_data;NULL;NULL;NULL;NULL;13_11_2020_15_27_10
103;32;3;queryStructureExp;query;7;7036;green;black,red,white,orange,blue,yellow,green;480,120,570,660,300,390,210;150,180,210,240,270,300,330;55;7;7;bvoobt12gur23nj;true;166.666;390;195;psychophysics;1039445;experimental_data;NULL;NULL;NULL;NULL;13_11_2020_15_27_10
104;10;3;queryStructureExp;bars;3;4136;saddlebrown;green,yellow,saddlebrown;300,480,390;270,300,330;32;3;3;bvoobt12gur23nj;true;166.668;390;195;psychophysics;1045589;experimental_data;NULL;NULL;NULL;NULL;13_11_2020_15_27_10
104;10;3;queryStructureExp;query;3;1419;saddlebrown;green,yellow,saddlebrown;300,480,390;270,300,330;51;3;3;bvoobt12gur23nj;true;166.667;390;195;psychophysics;1048014;experimental_data;NULL;NULL;NULL;NULL;13_11_2020_15_27_10
105;21;3;queryStructureExp;bars;5;4224;black;yellow,red,purple,green,black;210,390,300,570,480;150,180,210,240,270;32;5;4;bvoobt12gur23nj;false;16.667;390;195;psychophysics;1054246;experimental_data;NULL;NULL;NULL;NULL;13_11_2020_15_27_10
105;21;3;queryStructureExp;query;5;1404;black;yellow,red,purple,green,black;210,390,300,570,480;150,180,210,240,270;52;5;4;bvoobt12gur23nj;false;166.668;390;195;psychophysics;1056653;experimental_data;NULL;NULL;NULL;NULL;13_11_2020_15_27_10
NULL;NULL;0;NULL;end_of_block;NULL;4317;NULL;NULL;NULL;NULL;32;NULL;NULL;bvoobt12gur23nj;NULL;NULL;NULL;NULL;html-keyboard-response;1061974;experimental_data;1061993;176.999;0.8;NULL;13_11_2020_15_27_10
106;13;4;noStructureCont;bars;3;2011;red;red,saddlebrown,black;300,390,480;270,300,330;32;1;1;bvoobt12gur23nj;true;16.667;390;195;psychophysics;1064990;experimental_data;NULL;NULL;NULL;NULL;13_11_2020_15_27_10
106;13;4;noStructureCont;query;3;1498;red;red,saddlebrown,black;300,390,480;270,300,330;49;1;1;bvoobt12gur23nj;true;166.656;390;195;psychophysics;1067493;experimental_data;NULL;NULL;NULL;NULL;13_11_2020_15_27_10
107;34;4;noStructureCont;bars;7;2129;pink;white,blue,red,green,black,yellow,pink;120,210,300,390,480,570,660;150,180,210,240,270,300,330;32;7;7;bvoobt12gur23nj;true;166.661;390;195;psychophysics;1071629;experimental_data;NULL;NULL;NULL;NULL;13_11_2020_15_27_10
107;34;4;noStructureCont;query;7;3860;pink;white,blue,red,green,black,yellow,pink;120,210,300,390,480,570,660;150,180,210,240,270,300,330;55;7;7;bvoobt12gur23nj;true;166.666;390;195;psychophysics;1076494;experimental_data;NULL;NULL;NULL;NULL;13_11_2020_15_27_10
108;26;4;noStructureCont;bars;6;2617;white;white,saddlebrown,black,yellow,orange,purple;120,210,300,390,480,570;180,210,240,270,300,330;32;1;1;bvoobt12gur23nj;true;166.665;390;195;psychophysics;1081117;experimental_data;NULL;NULL;NULL;NULL;13_11_2020_15_27_10
108;26;4;noStructureCont;query;6;2139;white;white,saddlebrown,black,yellow,orange,purple;120,210,300,390,480,570;180,210,240,270,300,330;49;1;1;bvoobt12gur23nj;true;166.672;390;195;psychophysics;1084261;experimental_data;NULL;NULL;NULL;NULL;13_11_2020_15_27_10
109;19;4;noStructureCont;bars;4;2491;blue;blue,white,orange,green;210,300,390,480;210,240,270,300;32;1;1;bvoobt12gur23nj;true;166.668;390;195;psychophysics;1088758;experimental_data;NULL;NULL;NULL;NULL;13_11_2020_15_27_10
109;19;4;noStructureCont;query;4;2051;blue;blue,white,orange,green;210,300,390,480;210,240,270,300;49;1;1;bvoobt12gur23nj;true;166.668;390;195;psychophysics;1091814;experimental_data;NULL;NULL;NULL;NULL;13_11_2020_15_27_10
110;14;4;noStructureCont;bars;3;1017;yellow;orange,black,yellow;300,390,480;210,240,270;32;3;3;bvoobt12gur23nj;true;166.667;390;195;psychophysics;1094837;experimental_data;NULL;NULL;NULL;NULL;13_11_2020_15_27_10
110;14;4;noStructureCont;query;3;2155;yellow;orange,black,yellow;300,390,480;210,240,270;51;3;3;bvoobt12gur23nj;true;166.666;390;195;psychophysics;1097998;experimental_data;NULL;NULL;NULL;NULL;13_11_2020_15_27_10
111;15;4;noStructureCont;bars;4;2386;blue;pink,red,white,blue;210,300,390,480;180,210,240,270;32;4;4;bvoobt12gur23nj;true;166.668;390;195;psychophysics;1102390;experimental_data;NULL;NULL;NULL;NULL;13_11_2020_15_27_10
111;15;4;noStructureCont;query;4;2179;blue;pink,red,white,blue;210,300,390,480;180,210,240,270;52;4;4;bvoobt12gur23nj;true;166.665;390;195;psychophysics;1105573;experimental_data;NULL;NULL;NULL;NULL;13_11_2020_15_27_10
112;5;4;noStructureCont;bars;2;872;green;yellow,green;300,39;180,21;32;2;2;bvoobt12gur23nj;true;16.668;390;195;psychophysics;1108454;experimental_data;NULL;NULL;NULL;NULL;13_11_2020_15_27_10
112;5;4;noStructureCont;query;2;1235;green;yellow,green;300,39;180,21;50;2;2;bvoobt12gur23nj;true;166.666;390;195;psychophysics;1110693;experimental_data;NULL;NULL;NULL;NULL;13_11_2020_15_27_10
113;7;4;noStructureCont;bars;2;737;pink;black,pink;300,39;210,24;32;2;2;bvoobt12gur23nj;true;166.665;390;195;psychophysics;1113437;experimental_data;NULL;NULL;NULL;NULL;13_11_2020_15_27_10
113;7;4;noStructureCont;query;2;1059;pink;black,pink;300,39;210,24;50;2;2;bvoobt12gur23nj;true;166.667;390;195;psychophysics;1115501;experimental_data;NULL;NULL;NULL;NULL;13_11_2020_15_27_10
114;6;4;noStructureCont;bars;2;777;red;saddlebrown,red;300,39;180,21;32;2;2;bvoobt12gur23nj;true;166.672;390;195;psychophysics;1118285;experimental_data;NULL;NULL;NULL;NULL;13_11_2020_15_27_10
114;6;4;noStructureCont;query;2;957;red;saddlebrown,red;300,39;180,21;50;2;2;bvoobt12gur23nj;true;166.657;390;195;psychophysics;1120253;experimental_data;NULL;NULL;NULL;NULL;13_11_2020_15_27_10
115;30;4;noStructureCont;bars;7;2419;black;pink,saddlebrown,orange,red,black,white,blue;120,210,300,390,480,570,660;150,180,210,240,270,300,330;32;5;5;bvoobt12gur23nj;true;166.663;390;195;psychophysics;1124677;experimental_data;NULL;NULL;NULL;NULL;13_11_2020_15_27_10
115;30;4;noStructureCont;query;7;4043;black;pink,saddlebrown,orange,red,black,white,blue;120,210,300,390,480,570,660;150,180,210,240,270,300,330;53;5;5;bvoobt12gur23nj;true;166.664;390;195;psychophysics;1129725;experimental_data;NULL;NULL;NULL;NULL;13_11_2020_15_27_10
116;3;4;noStructureCont;bars;1;712;green;green;390;240;32;1;1;bvoobt12gur23nj;true;166.673;390;195;psychophysics;1132445;experimental_data;NULL;NULL;NULL;NULL;13_11_2020_15_27_10
116;3;4;noStructureCont;query;1;491;green;green;390;240;49;1;1;bvoobt12gur23nj;true;166.641;390;195;psychophysics;1133941;experimental_data;NULL;NULL;NULL;NULL;13_11_2020_15_27_10
117;1;4;noStructureCont;bars;1;857;white;white;390;330;32;1;1;bvoobt12gur23nj;true;166.653;390;195;psychophysics;1136805;experimental_data;NULL;NULL;NULL;NULL;13_11_2020_15_27_10
117;1;4;noStructureCont;query;1;564;white;white;390;330;49;1;1;bvoobt12gur23nj;true;166.666;390;195;psychophysics;1138373;experimental_data;NULL;NULL;NULL;NULL;13_11_2020_15_27_10
118;21;4;noStructureCont;bars;5;1921;pink;black,orange,green,pink,blue;210,300,390,480,570;150,180,210,240,270;32;4;4;bvoobt12gur23nj;true;166.666;390;195;psychophysics;1142301;experimental_data;NULL;NULL;NULL;NULL;13_11_2020_15_27_10
118;21;4;noStructureCont;query;5;3130;pink;black,orange,green,pink,blue;210,300,390,480,570;150,180,210,240,270;52;4;4;bvoobt12gur23nj;true;166.669;390;195;psychophysics;1146437;experimental_data;NULL;NULL;NULL;NULL;13_11_2020_15_27_10
119;23;4;noStructureCont;bars;5;1427;purple;pink,green,black,white,purple;210,300,390,480,570;210,240,270,300,330;32;5;4;bvoobt12gur23nj;false;166.668;390;195;psychophysics;1149869;experimental_data;NULL;NULL;NULL;NULL;13_11_2020_15_27_10
119;23;4;noStructureCont;query;5;1234;purple;pink,green,black,white,purple;210,300,390,480,570;210,240,270,300,330;52;5;4;bvoobt12gur23nj;false;166.679;390;195;psychophysics;1152109;experimental_data;NULL;NULL;NULL;NULL;13_11_2020_15_27_10
120;24;4;noStructureCont;bars;5;3952;purple;saddlebrown,purple,orange,yellow,pink;210,300,390,480,570;150,180,210,240,270;32;2;2;bvoobt12gur23nj;true;166.667;390;195;psychophysics;1158069;experimental_data;NULL;NULL;NULL;NULL;13_11_2020_15_27_10
120;24;4;noStructureCont;query;5;1259;purple;saddlebrown,purple,orange,yellow,pink;210,300,390,480,570;150,180,210,240,270;50;2;2;bvoobt12gur23nj;true;166.671;390;195;psychophysics;1160341;experimental_data;NULL;NULL;NULL;NULL;13_11_2020_15_27_10
121;8;4;noStructureCont;bars;2;809;red;pink,red;300,39;180,21;32;2;2;bvoobt12gur23nj;true;166.665;390;195;psychophysics;1163157;experimental_data;NULL;NULL;NULL;NULL;13_11_2020_15_27_10
121;8;4;noStructureCont;query;2;868;red;pink,red;300,39;180,21;50;2;2;bvoobt12gur23nj;true;166.662;390;195;psychophysics;1165029;experimental_data;NULL;NULL;NULL;NULL;13_11_2020_15_27_10
122;27;4;noStructureCont;bars;6;2626;white;purple,orange,yellow,white,green,blue;120,210,300,390,480,570;150,180,210,240,270,300;32;4;4;bvoobt12gur23nj;true;166.666;390;195;psychophysics;1169661;experimental_data;NULL;NULL;NULL;NULL;13_11_2020_15_27_10
122;27;4;noStructureCont;query;6;2516;white;purple,orange,yellow,white,green,blue;120,210,300,390,480,570;150,180,210,240,270,300;52;4;4;bvoobt12gur23nj;true;166.666;390;195;psychophysics;1173181;experimental_data;NULL;NULL;NULL;NULL;13_11_2020_15_27_10
123;33;4;noStructureCont;bars;7;1888;saddlebrown;pink,green,white,yellow,purple,blue,saddlebrown;120,210,300,390,480,570,660;150,180,210,240,270,300,330;32;7;5;bvoobt12gur23nj;false;166.666;390;195;psychophysics;1177077;experimental_data;NULL;NULL;NULL;NULL;13_11_2020_15_27_10
123;33;4;noStructureCont;query;7;3947;saddlebrown;pink,green,white,yellow,purple,blue,saddlebrown;120,210,300,390,480,570,660;150,180,210,240,270,300,330;53;7;5;bvoobt12gur23nj;false;16.667;390;195;psychophysics;1182029;experimental_data;NULL;NULL;NULL;NULL;13_11_2020_15_27_10
124;17;4;noStructureCont;bars;4;2439;black;saddlebrown,black,white,blue;210,300,390,480;150,180,210,240;32;2;2;bvoobt12gur23nj;true;166.672;390;195;psychophysics;1186477;experimental_data;NULL;NULL;NULL;NULL;13_11_2020_15_27_10
124;17;4;noStructureCont;query;4;2403;black;saddlebrown,black,white,blue;210,300,390,480;150,180,210,240;50;2;2;bvoobt12gur23nj;true;166.663;390;195;psychophysics;1189885;experimental_data;NULL;NULL;NULL;NULL;13_11_2020_15_27_10
125;2;4;noStructureCont;bars;1;841;yellow;yellow;390;180;32;1;1;bvoobt12gur23nj;true;166.659;390;195;psychophysics;1192733;experimental_data;NULL;NULL;NULL;NULL;13_11_2020_15_27_10
125;2;4;noStructureCont;query;1;547;yellow;yellow;390;180;49;1;1;bvoobt12gur23nj;true;166.672;390;195;psychophysics;1194285;experimental_data;NULL;NULL;NULL;NULL;13_11_2020_15_27_10
126;12;4;noStructureCont;bars;3;985;red;black,white,red;300,390,480;210,240,270;32;3;3;bvoobt12gur23nj;true;166.666;390;195;psychophysics;1197277;experimental_data;NULL;NULL;NULL;NULL;13_11_2020_15_27_10
126;12;4;noStructureCont;query;3;1155;red;black,white,red;300,390,480;210,240,270;51;3;3;bvoobt12gur23nj;true;166.671;390;195;psychophysics;1199437;experimental_data;NULL;NULL;NULL;NULL;13_11_2020_15_27_10
127;31;4;noStructureCont;bars;7;1683;pink;white,saddlebrown,red,orange,green,pink,yellow;120,210,300,390,480,570,660;150,180,210,240,270,300,330;32;6;4;bvoobt12gur23nj;false;166.667;390;195;psychophysics;1203125;experimental_data;NULL;NULL;NULL;NULL;13_11_2020_15_27_10
127;31;4;noStructureCont;query;7;3098;pink;white,saddlebrown,red,orange,green,pink,yellow;120,210,300,390,480,570,660;150,180,210,240,270,300,330;52;6;4;bvoobt12gur23nj;false;166.664;390;195;psychophysics;1207229;experimental_data;NULL;NULL;NULL;NULL;13_11_2020_15_27_10
128;11;4;noStructureCont;bars;3;1256;pink;yellow,pink,purple;300,390,480;180,210,240;32;2;2;bvoobt12gur23nj;true;16.667;390;195;psychophysics;1210493;experimental_data;NULL;NULL;NULL;NULL;13_11_2020_15_27_10
128;11;4;noStructureCont;query;3;1154;pink;yellow,pink,purple;300,390,480;180,210,240;50;2;2;bvoobt12gur23nj;true;166.662;390;195;psychophysics;1212653;experimental_data;NULL;NULL;NULL;NULL;13_11_2020_15_27_10
129;9;4;noStructureCont;bars;2;688;pink;pink,blue;300,39;240,27;32;1;1;bvoobt12gur23nj;true;16.667;390;195;psychophysics;1215349;experimental_data;NULL;NULL;NULL;NULL;13_11_2020_15_27_10
129;9;4;noStructureCont;query;2;1027;pink;pink,blue;300,39;240,27;49;1;1;bvoobt12gur23nj;true;166.664;390;195;psychophysics;1217381;experimental_data;NULL;NULL;NULL;NULL;13_11_2020_15_27_10
130;0;4;noStructureCont;bars;1;643;pink;pink;390;210;32;1;1;bvoobt12gur23nj;true;166.678;390;195;psychophysics;1220037;experimental_data;NULL;NULL;NULL;NULL;13_11_2020_15_27_10
130;0;4;noStructureCont;query;1;427;pink;pink;390;210;49;1;1;bvoobt12gur23nj;true;166.675;390;195;psychophysics;1221469;experimental_data;NULL;NULL;NULL;NULL;13_11_2020_15_27_10
131;18;4;noStructureCont;bars;4;1865;red;red,green,pink,orange;210,300,390,480;150,180,210,240;32;1;2;bvoobt12gur23nj;false;166.671;390;195;psychophysics;1225341;experimental_data;NULL;NULL;NULL;NULL;13_11_2020_15_27_10
131;18;4;noStructureCont;query;4;1652;red;red,green,pink,orange;210,300,390,480;150,180,210,240;50;1;2;bvoobt12gur23nj;false;166.665;390;195;psychophysics;1227997;experimental_data;NULL;NULL;NULL;NULL;13_11_2020_15_27_10
132;25;4;noStructureCont;bars;6;1578;blue;yellow,blue,orange,black,purple,saddlebrown;120,210,300,390,480,570;180,210,240,270,300,330;32;2;2;bvoobt12gur23nj;true;166.659;390;195;psychophysics;1231581;experimental_data;NULL;NULL;NULL;NULL;13_11_2020_15_27_10
132;25;4;noStructureCont;query;6;2129;blue;yellow,blue,orange,black,purple,saddlebrown;120,210,300,390,480,570;180,210,240,270,300,330;50;2;2;bvoobt12gur23nj;true;166.669;390;195;psychophysics;1234717;experimental_data;NULL;NULL;NULL;NULL;13_11_2020_15_27_10
133;22;4;noStructureCont;bars;5;1626;purple;orange,black,purple,pink,blue;210,300,390,480,570;180,210,240,270,300;32;3;3;bvoobt12gur23nj;true;166.673;390;195;psychophysics;1238349;experimental_data;NULL;NULL;NULL;NULL;13_11_2020_15_27_10
133;22;4;noStructureCont;query;5;1660;purple;orange,black,purple,pink,blue;210,300,390,480,570;180,210,240,270,300;51;3;3;bvoobt12gur23nj;true;166.665;390;195;psychophysics;1241013;experimental_data;NULL;NULL;NULL;NULL;13_11_2020_15_27_10
134;10;4;noStructureCont;bars;3;642;red;blue,red,black;300,390,480;270,300,330;32;2;2;bvoobt12gur23nj;true;166.663;390;195;psychophysics;1243661;experimental_data;NULL;NULL;NULL;NULL;13_11_2020_15_27_10
134;10;4;noStructureCont;query;3;1204;red;blue,red,black;300,390,480;270,300,330;50;2;2;bvoobt12gur23nj;true;166.665;390;195;psychophysics;1245869;experimental_data;NULL;NULL;NULL;NULL;13_11_2020_15_27_10
135;28;4;noStructureCont;bars;6;2435;black;purple,black,pink,saddlebrown,red,orange;120,210,300,390,480,570;150,180,210,240,270,300;32;2;2;bvoobt12gur23nj;true;166.672;390;195;psychophysics;1250309;experimental_data;NULL;NULL;NULL;NULL;13_11_2020_15_27_10
135;28;4;noStructureCont;query;6;2027;black;purple,black,pink,saddlebrown,red,orange;120,210,300,390,480,570;150,180,210,240,270,300;50;2;2;bvoobt12gur23nj;true;166.662;390;195;psychophysics;1253341;experimental_data;NULL;NULL;NULL;NULL;13_11_2020_15_27_10
136;20;4;noStructureCont;bars;5;1546;yellow;pink,yellow,black,saddlebrown,blue;210,300,390,480,570;150,180,210,240,270;32;2;2;bvoobt12gur23nj;true;166.667;390;195;psychophysics;1256893;experimental_data;NULL;NULL;NULL;NULL;13_11_2020_15_27_10
