Trial_index;TrialID;Block;Conditions;Stimulus_type;Number_of_Bars;rt;Query_color;color_sequence;position_sequence;heights;key_press;Correct_Position;response_position;subject_id;correct;avg_frame_time;center_x;center_y;trial_type;time_elapsed;TrialType;timeMs;timeMin;score;reward;date
1;2;1;noStructureExp;bars;3;2055;black;white,black,orange;480,300,390;150,180,210;32;2;2;euy73pt78rjgn1a;true;166.826;390;195;psychophysics;125764;practice_trials;NULL;NULL;NULL;NULL;13_11_2020_8_17_1
1;2;1;noStructureExp;query;3;1896;black;white,black,orange;480,300,390;150,180,210;50;2;2;euy73pt78rjgn1a;true;166.825;390;195;psychophysics;128667;practice_trial;NULL;NULL;NULL;NULL;13_11_2020_8_17_1
2;0;1;noStructureExp;bars;1;2332;yellow;yellow;390;270;32;1;1;euy73pt78rjgn1a;true;166.832;390;195;psychophysics;133011;practice_trials;NULL;NULL;NULL;NULL;13_11_2020_8_17_1
2;0;1;noStructureExp;query;1;2210;yellow;yellow;390;270;49;1;1;euy73pt78rjgn1a;true;166.825;390;195;psychophysics;136227;practice_trial;NULL;NULL;NULL;NULL;13_11_2020_8_17_1
3;4;1;noStructureExp;bars;5;4031;white;red,yellow,saddlebrown,black,white;480,210,390,300,570;180,210,240,270,300;32;5;5;euy73pt78rjgn1a;true;166.827;390;195;psychophysics;142267;practice_trials;NULL;NULL;NULL;NULL;13_11_2020_8_17_1
3;4;1;noStructureExp;query;5;1838;white;red,yellow,saddlebrown,black,white;480,210,390,300,570;180,210,240,270,300;53;5;5;euy73pt78rjgn1a;true;166.823;390;195;psychophysics;145115;practice_trial;NULL;NULL;NULL;NULL;13_11_2020_8_17_1
4;5;1;noStructureExp;bars;6;4016;saddlebrown;black,white,saddlebrown,green,purple,red;570,480,390,300,120,210;150,180,210,240,270,300;32;3;7;euy73pt78rjgn1a;false;166.828;390;195;psychophysics;151139;practice_trials;NULL;NULL;NULL;NULL;13_11_2020_8_17_1
4;5;1;noStructureExp;query;6;2634;saddlebrown;black,white,saddlebrown,green,purple,red;570,480,390,300,120,210;150,180,210,240,270,300;55;3;7;euy73pt78rjgn1a;false;166.827;390;195;psychophysics;154779;practice_trial;NULL;NULL;NULL;NULL;13_11_2020_8_17_1
5;1;1;noStructureExp;bars;2;1438;red;white,red;390,3;240,27;32;2;1;euy73pt78rjgn1a;false;166.828;390;195;psychophysics;158227;practice_trials;NULL;NULL;NULL;NULL;13_11_2020_8_17_1
5;1;1;noStructureExp;query;2;1081;red;white,red;390,3;240,27;49;2;1;euy73pt78rjgn1a;false;166.834;390;195;psychophysics;160315;practice_trial;NULL;NULL;NULL;NULL;13_11_2020_8_17_1
6;3;1;noStructureExp;bars;4;3384;orange;orange,red,saddlebrown,pink;210,390,300,480;180,210,240,270;32;1;1;euy73pt78rjgn1a;true;166.828;390;195;psychophysics;165707;practice_trials;NULL;NULL;NULL;NULL;13_11_2020_8_17_1
6;3;1;noStructureExp;query;4;1480;orange;orange,red,saddlebrown,pink;210,390,300,480;180,210,240,270;49;1;1;euy73pt78rjgn1a;true;166.829;390;195;psychophysics;168195;practice_trial;NULL;NULL;NULL;NULL;13_11_2020_8_17_1
7;6;1;noStructureExp;bars;7;5817;white;blue,green,black,yellow,pink,white,saddlebrown;660,480,570,390,300,210,120;150,180,210,240,270,300,330;32;6;6;euy73pt78rjgn1a;true;166.827;390;195;psychophysics;176019;practice_trials;NULL;NULL;NULL;NULL;13_11_2020_8_17_1
7;6;1;noStructureExp;query;7;1994;white;blue,green,black,yellow,pink,white,saddlebrown;660,480,570,390,300,210,120;150,180,210,240,270,300,330;54;6;6;euy73pt78rjgn1a;true;166.825;390;195;psychophysics;179019;practice_trial;NULL;NULL;NULL;NULL;13_11_2020_8_17_1
8;3;2;noStructureCont;bars;4;2842;green;green,black,purple,red;210,300,390,480;180,210,240,270;32;1;3;euy73pt78rjgn1a;false;166.831;390;195;psychophysics;188084;practice_trials;NULL;NULL;NULL;NULL;13_11_2020_8_17_1
8;3;2;noStructureCont;query;4;2977;green;green,black,purple,red;210,300,390,480;180,210,240,270;51;1;3;euy73pt78rjgn1a;false;166.826;390;195;psychophysics;192067;practice_trial;NULL;NULL;NULL;NULL;13_11_2020_8_17_1
9;1;2;noStructureCont;bars;2;1401;orange;purple,orange;300,39;240,27;32;2;2;euy73pt78rjgn1a;true;166.826;390;195;psychophysics;195475;practice_trials;NULL;NULL;NULL;NULL;13_11_2020_8_17_1
9;1;2;noStructureCont;query;2;537;orange;purple,orange;300,39;240,27;50;2;2;euy73pt78rjgn1a;true;166.814;390;195;psychophysics;197019;practice_trial;NULL;NULL;NULL;NULL;13_11_2020_8_17_1
10;0;2;noStructureCont;bars;1;702;blue;blue;390;270;32;1;1;euy73pt78rjgn1a;true;166.841;390;195;psychophysics;199731;practice_trials;NULL;NULL;NULL;NULL;13_11_2020_8_17_1
10;0;2;noStructureCont;query;1;541;blue;blue;390;270;49;1;1;euy73pt78rjgn1a;true;166.773;390;195;psychophysics;201283;practice_trial;NULL;NULL;NULL;NULL;13_11_2020_8_17_1
11;4;2;noStructureCont;bars;5;2488;blue;black,orange,yellow,purple,blue;210,300,390,480,570;180,210,240,270,300;32;5;5;euy73pt78rjgn1a;true;166.828;390;195;psychophysics;205779;practice_trials;NULL;NULL;NULL;NULL;13_11_2020_8_17_1
11;4;2;noStructureCont;query;5;1321;blue;black,orange,yellow,purple,blue;210,300,390,480,570;180,210,240,270,300;53;5;5;euy73pt78rjgn1a;true;166.831;390;195;psychophysics;208108;practice_trial;NULL;NULL;NULL;NULL;13_11_2020_8_17_1
12;6;2;noStructureCont;bars;7;3238;saddlebrown;orange,red,green,blue,white,saddlebrown,purple;120,210,300,390,480,570,660;150,180,210,240,270,300,330;32;6;6;euy73pt78rjgn1a;true;166.832;390;195;psychophysics;213355;practice_trials;NULL;NULL;NULL;NULL;13_11_2020_8_17_1
12;6;2;noStructureCont;query;7;1072;saddlebrown;orange,red,green,blue,white,saddlebrown,purple;120,210,300,390,480,570,660;150,180,210,240,270,300,330;54;6;6;euy73pt78rjgn1a;true;166.828;390;195;psychophysics;215435;practice_trial;NULL;NULL;NULL;NULL;13_11_2020_8_17_1
13;5;2;noStructureCont;bars;6;1856;saddlebrown;red,green,saddlebrown,pink,yellow,purple;120,210,300,390,480,570;150,180,210,240,270,300;32;3;3;euy73pt78rjgn1a;true;166.825;390;195;psychophysics;219298;practice_trials;NULL;NULL;NULL;NULL;13_11_2020_8_17_1
13;5;2;noStructureCont;query;6;1083;saddlebrown;red,green,saddlebrown,pink,yellow,purple;120,210,300,390,480,570;150,180,210,240,270,300;51;3;3;euy73pt78rjgn1a;true;166.822;390;195;psychophysics;221388;practice_trial;NULL;NULL;NULL;NULL;13_11_2020_8_17_1
14;2;2;noStructureCont;bars;3;1027;white;green,white,purple;300,390,480;150,180,210;32;2;1;euy73pt78rjgn1a;false;166.826;390;195;psychophysics;224428;practice_trials;NULL;NULL;NULL;NULL;13_11_2020_8_17_1
14;2;2;noStructureCont;query;3;812;white;green,white,purple;300,390,480;150,180,210;49;2;1;euy73pt78rjgn1a;false;166.784;390;195;psychophysics;226250;practice_trial;NULL;NULL;NULL;NULL;13_11_2020_8_17_1
NULL;NULL;NULL;NULL;end_of_practice;NULL;2668;NULL;NULL;NULL;NULL;32;NULL;NULL;euy73pt78rjgn1a;NULL;NULL;NULL;NULL;html-keyboard-response;229924;practice_trials;229937;383.228;0.714286;NULL;13_11_2020_8_17_1
1;0;1;noStructureExp;bars;1;3427;pink;pink;390;330;32;1;1;0kousukd07tco21;true;100.054;390;195;psychophysics;185101;practice_trials;NULL;NULL;NULL;NULL;13_11_2020_9_11_14
1;0;1;noStructureExp;query;1;4490;pink;pink;390;330;49;1;1;0kousukd07tco21;true;100.054;390;195;psychophysics;190600;practice_trial;NULL;NULL;NULL;NULL;13_11_2020_9_11_14
2;5;1;noStructureExp;bars;6;20811;purple;black,pink,yellow,purple,white,blue;120,210,570,300,480,390;150,180,210,240,270,300;32;4;3;0kousukd07tco21;false;100.053;390;195;psychophysics;213433;practice_trials;NULL;NULL;NULL;NULL;13_11_2020_9_11_14
2;5;1;noStructureExp;query;6;3539;purple;black,pink,yellow,purple,white,blue;120,210,570,300,480,390;150,180,210,240,270,300;51;4;3;0kousukd07tco21;false;100.052;390;195;psychophysics;217974;practice_trial;NULL;NULL;NULL;NULL;13_11_2020_9_11_14
3;6;1;noStructureExp;bars;7;20127;pink;yellow,red,green,pink,blue,white,black;480,120,210,390,570,300,660;150,180,210,240,270,300,330;32;4;5;0kousukd07tco21;false;100.152;390;195;psychophysics;240116;practice_trials;NULL;NULL;NULL;NULL;13_11_2020_9_11_14
3;6;1;noStructureExp;query;7;3766;pink;yellow,red,green,pink,blue,white,black;480,120,210,390,570,300,660;150,180,210,240,270,300,330;53;4;5;0kousukd07tco21;false;100.053;390;195;psychophysics;244888;practice_trial;NULL;NULL;NULL;NULL;13_11_2020_9_11_14
4;3;1;noStructureExp;bars;4;12437;white;white,orange,pink,saddlebrown;210,480,300,390;210,240,270,300;32;1;1;0kousukd07tco21;true;100.053;390;195;psychophysics;259346;practice_trials;NULL;NULL;NULL;NULL;13_11_2020_9_11_14
4;3;1;noStructureExp;query;4;1494;white;white,orange,pink,saddlebrown;210,480,300,390;210,240,270,300;49;1;1;0kousukd07tco21;true;100.054;390;195;psychophysics;261853;practice_trial;NULL;NULL;NULL;NULL;13_11_2020_9_11_14
5;2;1;noStructureExp;bars;3;4877;white;yellow,white,black;480,300,390;210,240,270;32;2;2;0kousukd07tco21;true;100.053;390;195;psychophysics;268740;practice_trials;NULL;NULL;NULL;NULL;13_11_2020_9_11_14
5;2;1;noStructureExp;query;3;2275;white;yellow,white,black;480,300,390;210,240,270;50;2;2;0kousukd07tco21;true;100.053;390;195;psychophysics;272016;practice_trial;NULL;NULL;NULL;NULL;13_11_2020_9_11_14
6;1;1;noStructureExp;bars;2;2297;red;white,red;390,3;210,24;32;2;2;0kousukd07tco21;true;100.054;390;195;psychophysics;276343;practice_trials;NULL;NULL;NULL;NULL;13_11_2020_9_11_14
6;1;1;noStructureExp;query;2;1008;red;white,red;390,3;210,24;50;2;2;0kousukd07tco21;true;100.052;390;195;psychophysics;278356;practice_trial;NULL;NULL;NULL;NULL;13_11_2020_9_11_14
7;4;1;noStructureExp;bars;5;10735;orange;yellow,orange,purple,blue,red;210,570,480,300,390;150,180,210,240,270;32;2;2;0kousukd07tco21;true;100.053;390;195;psychophysics;291102;practice_trials;NULL;NULL;NULL;NULL;13_11_2020_9_11_14
7;4;1;noStructureExp;query;5;1904;orange;yellow,orange,purple,blue,red;210,570,480,300,390;150,180,210,240,270;50;2;2;0kousukd07tco21;true;100.053;390;195;psychophysics;294020;practice_trial;NULL;NULL;NULL;NULL;13_11_2020_9_11_14
8;2;2;noStructureCont;bars;3;5027;pink;blue,pink,purple;300,390,480;210,240,270;32;2;2;0kousukd07tco21;true;100.053;390;195;psychophysics;303566;practice_trials;NULL;NULL;NULL;NULL;13_11_2020_9_11_14
8;2;2;noStructureCont;query;3;1261;pink;blue,pink,purple;300,390,480;210,240,270;50;2;2;0kousukd07tco21;true;100.048;390;195;psychophysics;305842;practice_trial;NULL;NULL;NULL;NULL;13_11_2020_9_11_14
9;3;2;noStructureCont;bars;4;6196;blue;blue,black,purple,green;210,300,390,480;210,240,270,300;32;1;1;0kousukd07tco21;true;100.053;390;195;psychophysics;314047;practice_trials;NULL;NULL;NULL;NULL;13_11_2020_9_11_14
9;3;2;noStructureCont;query;4;1303;blue;blue,black,purple,green;210,300,390,480;210,240,270,300;49;1;1;0kousukd07tco21;true;100.054;390;195;psychophysics;316357;practice_trial;NULL;NULL;NULL;NULL;13_11_2020_9_11_14
10;6;2;noStructureCont;bars;7;18552;orange;pink,purple,green,orange,blue,red,yellow;120,210,300,390,480,570,660;150,180,210,240,270,300,330;32;4;4;0kousukd07tco21;true;100.053;390;195;psychophysics;336921;practice_trials;NULL;NULL;NULL;NULL;13_11_2020_9_11_14
10;6;2;noStructureCont;query;7;3715;orange;pink,purple,green,orange,blue,red,yellow;120,210,300,390,480,570,660;150,180,210,240,270,300,330;52;4;4;0kousukd07tco21;true;100.053;390;195;psychophysics;341642;practice_trial;NULL;NULL;NULL;NULL;13_11_2020_9_11_14
11;0;2;noStructureCont;bars;1;1202;purple;purple;390;330;32;1;1;0kousukd07tco21;true;100.052;390;195;psychophysics;344863;practice_trials;NULL;NULL;NULL;NULL;13_11_2020_9_11_14
11;0;2;noStructureCont;query;1;418;purple;purple;390;330;49;1;1;0kousukd07tco21;true;100.054;390;195;psychophysics;346298;practice_trial;NULL;NULL;NULL;NULL;13_11_2020_9_11_14
12;1;2;noStructureCont;bars;2;1651;green;yellow,green;300,39;210,24;32;2;2;0kousukd07tco21;true;100.053;390;195;psychophysics;349972;practice_trials;NULL;NULL;NULL;NULL;13_11_2020_9_11_14
12;1;2;noStructureCont;query;2;1120;green;yellow,green;300,39;210,24;50;2;2;0kousukd07tco21;true;100.054;390;195;psychophysics;352102;practice_trial;NULL;NULL;NULL;NULL;13_11_2020_9_11_14
13;5;2;noStructureCont;bars;6;20722;red;white,green,orange,red,pink,blue;120,210,300,390,480,570;150,180,210,240,270,300;32;4;4;0kousukd07tco21;true;100.053;390;195;psychophysics;374855;practice_trials;NULL;NULL;NULL;NULL;13_11_2020_9_11_14
13;5;2;noStructureCont;query;6;1193;red;white,green,orange,red,pink,blue;120,210,300,390,480,570;150,180,210,240,270,300;52;4;4;0kousukd07tco21;true;100.054;390;195;psychophysics;377056;practice_trial;NULL;NULL;NULL;NULL;13_11_2020_9_11_14
14;4;2;noStructureCont;bars;5;7998;saddlebrown;green,saddlebrown,orange,pink,yellow;210,300,390,480,570;150,180,210,240,270;32;2;2;0kousukd07tco21;true;100.053;390;195;psychophysics;387080;practice_trials;NULL;NULL;NULL;NULL;13_11_2020_9_11_14
14;4;2;noStructureCont;query;5;4748;saddlebrown;green,saddlebrown,orange,pink,yellow;210,300,390,480,570;150,180,210,240,270;50;2;2;0kousukd07tco21;true;100.053;390;195;psychophysics;392833;practice_trial;NULL;NULL;NULL;NULL;13_11_2020_9_11_14
NULL;NULL;NULL;NULL;end_of_practice;NULL;3341;NULL;NULL;NULL;NULL;32;NULL;NULL;0kousukd07tco21;NULL;NULL;NULL;NULL;html-keyboard-response;397183;practice_trials;397192;661.987;0.857143;NULL;13_11_2020_9_11_14
1;5;1;noStructureExp;bars;6;5490;green;white,yellow,green,saddlebrown,pink,purple;210,480,120,570,390,300;180,210,240,270,300,330;32;3;3;jfnmbjt4xn1r4dg;true;166.625;390;195;psychophysics;59778;practice_trials;NULL;NULL;NULL;NULL;13_11_2020_14_26_53
1;5;1;noStructureExp;query;6;3842;green;white,yellow,green,saddlebrown,pink,purple;210,480,120,570,390,300;180,210,240,270,300,330;51;3;3;jfnmbjt4xn1r4dg;true;166.627;390;195;psychophysics;64632;practice_trial;NULL;NULL;NULL;NULL;13_11_2020_14_26_53
2;3;1;noStructureExp;bars;4;4337;pink;white,pink,purple,blue;480,390,210,300;210,240,270,300;32;2;2;jfnmbjt4xn1r4dg;true;166.624;390;195;psychophysics;70982;practice_trials;NULL;NULL;NULL;NULL;13_11_2020_14_26_53
2;3;1;noStructureExp;query;4;1069;pink;white,pink,purple,blue;480,390,210,300;210,240,270,300;50;2;2;jfnmbjt4xn1r4dg;true;166.631;390;195;psychophysics;73060;practice_trial;NULL;NULL;NULL;NULL;13_11_2020_14_26_53
3;4;1;noStructureExp;bars;5;3654;yellow;white,blue,purple,yellow,green;210,480,300,570,390;180,210,240,270,300;32;4;4;jfnmbjt4xn1r4dg;true;166.626;390;195;psychophysics;78737;practice_trials;NULL;NULL;NULL;NULL;13_11_2020_14_26_53
3;4;1;noStructureExp;query;5;4480;yellow;white,blue,purple,yellow,green;210,480,300,570,390;180,210,240,270,300;52;4;4;jfnmbjt4xn1r4dg;true;166.625;390;195;psychophysics;84227;practice_trial;NULL;NULL;NULL;NULL;13_11_2020_14_26_53
4;1;1;noStructureExp;bars;2;1695;saddlebrown;pink,saddlebrown;300,39;150,18;32;2;2;jfnmbjt4xn1r4dg;true;166.622;390;195;psychophysics;87936;practice_trials;NULL;NULL;NULL;NULL;13_11_2020_14_26_53
4;1;1;noStructureExp;query;2;509;saddlebrown;pink,saddlebrown;300,39;150,18;50;2;2;jfnmbjt4xn1r4dg;true;166.629;390;195;psychophysics;89453;practice_trial;NULL;NULL;NULL;NULL;13_11_2020_14_26_53
5;0;1;noStructureExp;bars;1;1463;purple;purple;390;300;32;1;1;jfnmbjt4xn1r4dg;true;166.624;390;195;psychophysics;92935;practice_trials;NULL;NULL;NULL;NULL;13_11_2020_14_26_53
5;0;1;noStructureExp;query;1;465;purple;purple;390;300;49;1;1;jfnmbjt4xn1r4dg;true;166.633;390;195;psychophysics;94407;practice_trial;NULL;NULL;NULL;NULL;13_11_2020_14_26_53
6;6;1;noStructureExp;bars;7;10916;purple;blue,saddlebrown,orange,green,pink,red,purple;570,660,480,120,210,390,300;150,180,210,240,270,300,330;32;7;8;jfnmbjt4xn1r4dg;invalid response;166.626;390;195;psychophysics;107342;practice_trials;NULL;NULL;NULL;NULL;13_11_2020_14_26_53
6;6;1;noStructureExp;query;7;2610;purple;blue,saddlebrown,orange,green,pink,red,purple;570,660,480,120,210,390,300;150,180,210,240,270,300,330;56;7;8;jfnmbjt4xn1r4dg;invalid response;166.627;390;195;psychophysics;110966;practice_trial;NULL;NULL;NULL;NULL;13_11_2020_14_26_53
7;2;1;noStructureExp;bars;3;3561;purple;yellow,black,purple;300,390,480;240,270,300;32;3;3;jfnmbjt4xn1r4dg;true;166.624;390;195;psychophysics;120541;practice_trials;NULL;NULL;NULL;NULL;13_11_2020_14_26_53
7;2;1;noStructureExp;query;3;1319;purple;yellow,black,purple;300,390,480;240,270,300;51;3;3;jfnmbjt4xn1r4dg;true;166.623;390;195;psychophysics;122868;practice_trial;NULL;NULL;NULL;NULL;13_11_2020_14_26_53
8;4;2;noStructureCont;bars;5;3541;red;yellow,blue,saddlebrown,red,pink;210,300,390,480,570;180,210,240,270,300;32;4;4;jfnmbjt4xn1r4dg;true;166.625;390;195;psychophysics;130617;practice_trials;NULL;NULL;NULL;NULL;13_11_2020_14_26_53
8;4;2;noStructureCont;query;5;1113;red;yellow,blue,saddlebrown,red,pink;210,300,390,480,570;180,210,240,270,300;52;4;4;jfnmbjt4xn1r4dg;true;166.622;390;195;psychophysics;132742;practice_trial;NULL;NULL;NULL;NULL;13_11_2020_14_26_53
9;1;2;noStructureCont;bars;2;837;saddlebrown;purple,saddlebrown;300,39;150,18;32;2;2;jfnmbjt4xn1r4dg;true;166.623;390;195;psychophysics;135598;practice_trials;NULL;NULL;NULL;NULL;13_11_2020_14_26_53
9;1;2;noStructureCont;query;2;636;saddlebrown;purple,saddlebrown;300,39;150,18;50;2;2;jfnmbjt4xn1r4dg;true;166.627;390;195;psychophysics;137250;practice_trial;NULL;NULL;NULL;NULL;13_11_2020_14_26_53
10;2;2;noStructureCont;bars;3;3569;purple;orange,black,purple;300,390,480;240,270,300;32;3;3;jfnmbjt4xn1r4dg;true;166.625;390;195;psychophysics;142842;practice_trials;NULL;NULL;NULL;NULL;13_11_2020_14_26_53
10;2;2;noStructureCont;query;3;1393;purple;orange,black,purple;300,390,480;240,270,300;51;3;3;jfnmbjt4xn1r4dg;true;166.623;390;195;psychophysics;145240;practice_trial;NULL;NULL;NULL;NULL;13_11_2020_14_26_53
11;5;2;noStructureCont;bars;6;7239;black;purple,orange,black,blue,yellow,pink;120,210,300,390,480,570;180,210,240,270,300,330;32;3;3;jfnmbjt4xn1r4dg;true;166.625;390;195;psychophysics;154496;practice_trials;NULL;NULL;NULL;NULL;13_11_2020_14_26_53
11;5;2;noStructureCont;query;6;1191;black;purple,orange,black,blue,yellow,pink;120,210,300,390,480,570;180,210,240,270,300,330;51;3;3;jfnmbjt4xn1r4dg;true;166.621;390;195;psychophysics;156698;practice_trial;NULL;NULL;NULL;NULL;13_11_2020_14_26_53
12;3;2;noStructureCont;bars;4;10711;blue;green,blue,orange,purple;210,300,390,480;210,240,270,300;32;2;2;jfnmbjt4xn1r4dg;true;166.626;390;195;psychophysics;169434;practice_trials;NULL;NULL;NULL;NULL;13_11_2020_14_26_53
12;3;2;noStructureCont;query;4;830;blue;green,blue,orange,purple;210,300,390,480;210,240,270,300;50;2;2;jfnmbjt4xn1r4dg;true;166.626;390;195;psychophysics;171273;practice_trial;NULL;NULL;NULL;NULL;13_11_2020_14_26_53
13;0;2;noStructureCont;bars;1;768;yellow;yellow;390;300;32;1;1;jfnmbjt4xn1r4dg;true;166.626;390;195;psychophysics;174058;practice_trials;NULL;NULL;NULL;NULL;13_11_2020_14_26_53
13;0;2;noStructureCont;query;1;440;yellow;yellow;390;300;49;1;1;jfnmbjt4xn1r4dg;true;166.607;390;195;psychophysics;175508;practice_trial;NULL;NULL;NULL;NULL;13_11_2020_14_26_53
14;6;2;noStructureCont;bars;7;8990;saddlebrown;white,black,pink,purple,blue,yellow,saddlebrown;120,210,300,390,480,570,660;150,180,210,240,270,300,330;32;7;7;jfnmbjt4xn1r4dg;true;166.625;390;195;psychophysics;186525;practice_trials;NULL;NULL;NULL;NULL;13_11_2020_14_26_53
14;6;2;noStructureCont;query;7;1045;saddlebrown;white,black,pink,purple,blue,yellow,saddlebrown;120,210,300,390,480,570,660;150,180,210,240,270,300,330;55;7;7;jfnmbjt4xn1r4dg;true;166.623;390;195;psychophysics;188577;practice_trial;NULL;NULL;NULL;NULL;13_11_2020_14_26_53
NULL;NULL;NULL;NULL;end_of_practice;NULL;2484;NULL;NULL;NULL;NULL;32;NULL;NULL;jfnmbjt4xn1r4dg;NULL;NULL;NULL;NULL;html-keyboard-response;192070;practice_trials;192077;320.128;0.928571;NULL;13_11_2020_14_26_53
1;3;1;noStructureExp;bars;4;6187;pink;purple,pink,blue,orange;390,210,300,480;180,210,240,270;32;2;2;5mptj6ff8jp8fan;true;166.669;390;195;psychophysics;127544;practice_trials;NULL;NULL;NULL;NULL;13_11_2020_7_28_52
1;3;1;noStructureExp;query;4;1962;pink;purple,pink,blue,orange;390,210,300,480;180,210,240,270;50;2;2;5mptj6ff8jp8fan;true;166.675;390;195;psychophysics;130515;practice_trial;NULL;NULL;NULL;NULL;13_11_2020_7_28_52
2;2;1;noStructureExp;bars;3;4059;yellow;purple,yellow,saddlebrown;480,300,390;150,180,210;32;2;2;5mptj6ff8jp8fan;true;16.667;390;195;psychophysics;136595;practice_trials;NULL;NULL;NULL;NULL;13_11_2020_7_28_52
2;2;1;noStructureExp;query;3;1628;yellow;purple,yellow,saddlebrown;480,300,390;150,180,210;50;2;2;5mptj6ff8jp8fan;true;166.668;390;195;psychophysics;139232;practice_trial;NULL;NULL;NULL;NULL;13_11_2020_7_28_52
3;6;1;noStructureExp;bars;7;10969;pink;orange,black,pink,white,red,blue,purple;390,660,570,210,120,480,300;150,180,210,240,270,300,330;32;3;3;5mptj6ff8jp8fan;true;166.668;390;195;psychophysics;152217;practice_trials;NULL;NULL;NULL;NULL;13_11_2020_7_28_52
3;6;1;noStructureExp;query;7;3541;pink;orange,black,pink,white,red,blue,purple;390,660,570,210,120,480,300;150,180,210,240,270,300,330;51;3;3;5mptj6ff8jp8fan;true;16.667;390;195;psychophysics;156764;practice_trial;NULL;NULL;NULL;NULL;13_11_2020_7_28_52
4;4;1;noStructureExp;bars;5;5564;blue;pink,saddlebrown,yellow,green,blue;570,390,210,300,480;180,210,240,270,300;32;5;5;5mptj6ff8jp8fan;true;166.668;390;195;psychophysics;164338;practice_trials;NULL;NULL;NULL;NULL;13_11_2020_7_28_52
4;4;1;noStructureExp;query;5;1645;blue;pink,saddlebrown,yellow,green,blue;570,390,210,300,480;180,210,240,270,300;53;5;5;5mptj6ff8jp8fan;true;166.664;390;195;psychophysics;166997;practice_trial;NULL;NULL;NULL;NULL;13_11_2020_7_28_52
5;5;1;noStructureExp;bars;6;8458;pink;yellow,orange,pink,white,green,purple;210,480,120,390,570,300;150,180,210,240,270,300;32;3;3;5mptj6ff8jp8fan;true;166.669;390;195;psychophysics;177473;practice_trials;NULL;NULL;NULL;NULL;13_11_2020_7_28_52
5;5;1;noStructureExp;query;6;1618;pink;yellow,orange,pink,white,green,purple;210,480,120,390,570,300;150,180,210,240,270,300;51;3;3;5mptj6ff8jp8fan;true;166.666;390;195;psychophysics;180099;practice_trial;NULL;NULL;NULL;NULL;13_11_2020_7_28_52
6;1;1;noStructureExp;bars;2;2181;black;black,blue;390,3;150,18;32;1;1;5mptj6ff8jp8fan;true;16.667;390;195;psychophysics;184298;practice_trials;NULL;NULL;NULL;NULL;13_11_2020_7_28_52
6;1;1;noStructureExp;query;2;1409;black;black,blue;390,3;150,18;49;1;1;5mptj6ff8jp8fan;true;16.668;390;195;psychophysics;186715;practice_trial;NULL;NULL;NULL;NULL;13_11_2020_7_28_52
7;0;1;noStructureExp;bars;1;1254;saddlebrown;saddlebrown;390;330;32;1;1;5mptj6ff8jp8fan;true;16.667;390;195;psychophysics;189983;practice_trials;NULL;NULL;NULL;NULL;13_11_2020_7_28_52
7;0;1;noStructureExp;query;1;648;saddlebrown;saddlebrown;390;330;49;1;1;5mptj6ff8jp8fan;true;166.663;390;195;psychophysics;191636;practice_trial;NULL;NULL;NULL;NULL;13_11_2020_7_28_52
8;4;2;noStructureCont;bars;5;5596;pink;green,white,saddlebrown,yellow,pink;210,300,390,480,570;180,210,240,270,300;32;5;5;5mptj6ff8jp8fan;true;166.666;390;195;psychophysics;204063;practice_trials;NULL;NULL;NULL;NULL;13_11_2020_7_28_52
8;4;2;noStructureCont;query;5;1552;pink;green,white,saddlebrown,yellow,pink;210,300,390,480,570;180,210,240,270,300;53;5;5;5mptj6ff8jp8fan;true;166.661;390;195;psychophysics;206622;practice_trial;NULL;NULL;NULL;NULL;13_11_2020_7_28_52
9;3;2;noStructureCont;bars;4;4476;blue;yellow,blue,saddlebrown,pink;210,300,390,480;180,210,240,270;32;2;2;5mptj6ff8jp8fan;true;166.664;390;195;psychophysics;213110;practice_trials;NULL;NULL;NULL;NULL;13_11_2020_7_28_52
9;3;2;noStructureCont;query;4;1461;blue;yellow,blue,saddlebrown,pink;210,300,390,480;180,210,240,270;50;2;2;5mptj6ff8jp8fan;true;166.654;390;195;psychophysics;215580;practice_trial;NULL;NULL;NULL;NULL;13_11_2020_7_28_52
10;2;2;noStructureCont;bars;3;2983;red;purple,red,black;300,390,480;150,180,210;32;2;2;5mptj6ff8jp8fan;true;166.662;390;195;psychophysics;220569;practice_trials;NULL;NULL;NULL;NULL;13_11_2020_7_28_52
10;2;2;noStructureCont;query;3;974;red;purple,red,black;300,390,480;150,180,210;50;2;2;5mptj6ff8jp8fan;true;166.673;390;195;psychophysics;222548;practice_trial;NULL;NULL;NULL;NULL;13_11_2020_7_28_52
11;6;2;noStructureCont;bars;7;5981;pink;orange,yellow,pink,white,green,black,red;120,210,300,390,480,570,660;150,180,210,240,270,300,330;32;3;3;5mptj6ff8jp8fan;true;166.671;390;195;psychophysics;230544;practice_trials;NULL;NULL;NULL;NULL;13_11_2020_7_28_52
11;6;2;noStructureCont;query;7;1103;pink;orange,yellow,pink,white,green,black,red;120,210,300,390,480,570,660;150,180,210,240,270,300,330;51;3;3;5mptj6ff8jp8fan;true;166.668;390;195;psychophysics;232654;practice_trial;NULL;NULL;NULL;NULL;13_11_2020_7_28_52
12;1;2;noStructureCont;bars;2;1306;white;white,black;300,39;150,18;32;1;1;5mptj6ff8jp8fan;true;166.667;390;195;psychophysics;235970;practice_trials;NULL;NULL;NULL;NULL;13_11_2020_7_28_52
12;1;2;noStructureCont;query;2;432;white;white,black;300,39;150,18;49;1;1;5mptj6ff8jp8fan;true;166.665;390;195;psychophysics;237412;practice_trial;NULL;NULL;NULL;NULL;13_11_2020_7_28_52
13;5;2;noStructureCont;bars;6;5135;green;orange,yellow,green,white,purple,pink;120,210,300,390,480,570;150,180,210,240,270,300;32;3;3;5mptj6ff8jp8fan;true;166.669;390;195;psychophysics;244556;practice_trials;NULL;NULL;NULL;NULL;13_11_2020_7_28_52
13;5;2;noStructureCont;query;6;965;green;orange,yellow,green,white,purple,pink;120,210,300,390,480,570;150,180,210,240,270,300;51;3;3;5mptj6ff8jp8fan;true;166.667;390;195;psychophysics;246531;practice_trial;NULL;NULL;NULL;NULL;13_11_2020_7_28_52
14;0;2;noStructureCont;bars;1;886;orange;orange;390;330;32;1;1;5mptj6ff8jp8fan;true;166.672;390;195;psychophysics;249432;practice_trials;NULL;NULL;NULL;NULL;13_11_2020_7_28_52
14;0;2;noStructureCont;query;1;400;orange;orange;390;330;49;1;1;5mptj6ff8jp8fan;true;166.593;390;195;psychophysics;250838;practice_trial;NULL;NULL;NULL;NULL;13_11_2020_7_28_52
NULL;NULL;NULL;NULL;end_of_practice;NULL;3490;NULL;NULL;NULL;NULL;32;NULL;NULL;5mptj6ff8jp8fan;NULL;NULL;NULL;NULL;html-keyboard-response;255335;practice_trials;255339;425.565;1;NULL;13_11_2020_7_28_52
1;17;1;sortStructureExp;bars;4;2095;green;black,white,blue,green;480,300,210,390;180,210,240,270;32;4;4;euy73pt78rjgn1a;true;166.827;390;195;psychophysics;6467;experimental_data;NULL;NULL;NULL;NULL;13_11_2020_8_21_25
1;17;1;sortStructureExp;query;4;1258;green;black,white,blue,green;480,300,210,390;180,210,240,270;52;4;4;euy73pt78rjgn1a;true;166.828;390;195;psychophysics;8746;experimental_data;NULL;NULL;NULL;NULL;13_11_2020_8_21_25
2;26;1;sortStructureExp;bars;6;3255;pink;green,black,white,blue,saddlebrown,pink;300,480,120,210,390,570;180,210,240,270,300,330;32;6;6;euy73pt78rjgn1a;true;166.832;390;195;psychophysics;14026;experimental_data;NULL;NULL;NULL;NULL;13_11_2020_8_21_25
2;26;1;sortStructureExp;query;6;1135;pink;green,black,white,blue,saddlebrown,pink;300,480,120,210,390,570;180,210,240,270,300,330;54;6;6;euy73pt78rjgn1a;true;166.825;390;195;psychophysics;16178;experimental_data;NULL;NULL;NULL;NULL;13_11_2020_8_21_25
3;9;1;sortStructureExp;bars;2;1380;white;black,white;300,39;300,33;32;2;2;euy73pt78rjgn1a;true;166.833;390;195;psychophysics;19578;experimental_data;NULL;NULL;NULL;NULL;13_11_2020_8_21_25
3;9;1;sortStructureExp;query;2;1336;white;black,white;300,39;300,33;50;2;2;euy73pt78rjgn1a;true;166.823;390;195;psychophysics;21922;experimental_data;NULL;NULL;NULL;NULL;13_11_2020_8_21_25
4;22;1;sortStructureExp;bars;5;2234;yellow;red,yellow,black,white,blue;570,390,210,480,300;180,210,240,270,300;32;2;4;euy73pt78rjgn1a;false;166.832;390;195;psychophysics;26171;experimental_data;NULL;NULL;NULL;NULL;13_11_2020_8_21_25
4;22;1;sortStructureExp;query;5;1296;yellow;red,yellow,black,white,blue;570,390,210,480,300;180,210,240,270,300;52;2;4;euy73pt78rjgn1a;false;166.824;390;195;psychophysics;28474;experimental_data;NULL;NULL;NULL;NULL;13_11_2020_8_21_25
5;10;1;sortStructureExp;bars;3;1369;white;black,white,blue;480,300,390;270,300,330;32;2;1;euy73pt78rjgn1a;false;166.823;390;195;psychophysics;31866;experimental_data;NULL;NULL;NULL;NULL;13_11_2020_8_21_25
5;10;1;sortStructureExp;query;3;871;white;black,white,blue;480,300,390;270,300,330;49;2;1;euy73pt78rjgn1a;false;166.836;390;195;psychophysics;33746;experimental_data;NULL;NULL;NULL;NULL;13_11_2020_8_21_25
6;34;1;sortStructureExp;bars;7;5480;white;orange,green,red,purple,black,white,blue;300,120,570,210,390,480,660;150,180,210,240,270,300,330;32;6;4;euy73pt78rjgn1a;false;16.683;390;195;psychophysics;41236;experimental_data;NULL;NULL;NULL;NULL;13_11_2020_8_21_25
6;34;1;sortStructureExp;query;7;1678;white;orange,green,red,purple,black,white,blue;300,120,570,210,390,480,660;150,180,210,240,270,300,330;52;6;4;euy73pt78rjgn1a;false;166.823;390;195;psychophysics;43922;experimental_data;NULL;NULL;NULL;NULL;13_11_2020_8_21_25
7;30;1;sortStructureExp;bars;7;5101;white;yellow,green,purple,black,white,blue,orange;120,660,300,390,480,210,570;150,180,210,240,270,300,330;32;5;5;euy73pt78rjgn1a;true;16.683;390;195;psychophysics;51034;experimental_data;NULL;NULL;NULL;NULL;13_11_2020_8_21_25
7;30;1;sortStructureExp;query;7;1471;white;yellow,green,purple,black,white,blue,orange;120,660,300,390,480,210,570;150,180,210,240,270,300,330;53;5;5;euy73pt78rjgn1a;true;166.835;390;195;psychophysics;53514;experimental_data;NULL;NULL;NULL;NULL;13_11_2020_8_21_25
8;18;1;sortStructureExp;bars;4;2183;blue;black,white,blue,red;390,300,480,210;150,180,210,240;32;3;3;euy73pt78rjgn1a;true;166.823;390;195;psychophysics;57706;experimental_data;NULL;NULL;NULL;NULL;13_11_2020_8_21_25
8;18;1;sortStructureExp;query;4;1063;blue;black,white,blue,red;390,300,480,210;150,180,210,240;51;3;3;euy73pt78rjgn1a;true;16.683;390;195;psychophysics;59778;experimental_data;NULL;NULL;NULL;NULL;13_11_2020_8_21_25
9;12;1;sortStructureExp;bars;3;1333;white;black,white,blue;480,390,300;180,210,240;32;2;2;euy73pt78rjgn1a;true;166.823;390;195;psychophysics;63122;experimental_data;NULL;NULL;NULL;NULL;13_11_2020_8_21_25
9;12;1;sortStructureExp;query;3;560;white;black,white,blue;480,390,300;180,210,240;50;2;2;euy73pt78rjgn1a;true;166.822;390;195;psychophysics;64690;experimental_data;NULL;NULL;NULL;NULL;13_11_2020_8_21_25
10;16;1;sortStructureExp;bars;4;2678;white;saddlebrown,black,white,blue;210,480,390,300;240,270,300,330;32;3;3;euy73pt78rjgn1a;true;16.683;390;195;psychophysics;69402;experimental_data;NULL;NULL;NULL;NULL;13_11_2020_8_21_25
10;16;1;sortStructureExp;query;4;1007;white;saddlebrown,black,white,blue;210,480,390,300;240,270,300,330;51;3;3;euy73pt78rjgn1a;true;166.836;390;195;psychophysics;71418;experimental_data;NULL;NULL;NULL;NULL;13_11_2020_8_21_25
11;5;1;sortStructureExp;bars;2;779;black;black,white;390,3;150,18;32;1;1;euy73pt78rjgn1a;true;16.682;390;195;psychophysics;74210;experimental_data;NULL;NULL;NULL;NULL;13_11_2020_8_21_25
11;5;1;sortStructureExp;query;2;1009;black;black,white;390,3;150,18;49;1;1;euy73pt78rjgn1a;true;16.683;390;195;psychophysics;76226;experimental_data;NULL;NULL;NULL;NULL;13_11_2020_8_21_25
12;0;1;sortStructureExp;bars;1;581;black;black;390;330;32;1;1;euy73pt78rjgn1a;true;166.834;390;195;psychophysics;78819;experimental_data;NULL;NULL;NULL;NULL;13_11_2020_8_21_25
12;0;1;sortStructureExp;query;1;360;black;black;390;330;49;1;1;euy73pt78rjgn1a;true;166.843;390;195;psychophysics;80186;experimental_data;NULL;NULL;NULL;NULL;13_11_2020_8_21_25
13;27;1;sortStructureExp;bars;6;5021;saddlebrown;pink,yellow,saddlebrown,black,white,blue;480,570,300,120,210,390;180,210,240,270,300,330;32;3;6;euy73pt78rjgn1a;false;166.831;390;195;psychophysics;87218;experimental_data;NULL;NULL;NULL;NULL;13_11_2020_8_21_25
13;27;1;sortStructureExp;query;6;1647;saddlebrown;pink,yellow,saddlebrown,black,white,blue;480,570,300,120,210,390;180,210,240,270,300,330;54;3;6;euy73pt78rjgn1a;false;166.826;390;195;psychophysics;89874;experimental_data;NULL;NULL;NULL;NULL;13_11_2020_8_21_25
14;31;1;sortStructureExp;bars;7;6135;red;orange,pink,red,purple,black,white,blue;120,300,390,210,480,570,660;150,180,210,240,270,300,330;32;3;4;euy73pt78rjgn1a;false;166.829;390;195;psychophysics;98019;experimental_data;NULL;NULL;NULL;NULL;13_11_2020_8_21_25
14;31;1;sortStructureExp;query;7;3725;red;orange,pink,red,purple,black,white,blue;120,300,390,210,480,570,660;150,180,210,240,270,300,330;52;3;4;euy73pt78rjgn1a;false;166.828;390;195;psychophysics;102754;experimental_data;NULL;NULL;NULL;NULL;13_11_2020_8_21_25
15;21;1;sortStructureExp;bars;5;3032;purple;purple,saddlebrown,black,white,blue;390,480,570,300,210;150,180,210,240,270;32;1;1;euy73pt78rjgn1a;true;166.829;390;195;psychophysics;107794;experimental_data;NULL;NULL;NULL;NULL;13_11_2020_8_21_25
15;21;1;sortStructureExp;query;5;609;purple;purple,saddlebrown,black,white,blue;390,480,570,300,210;150,180,210,240,270;49;1;1;euy73pt78rjgn1a;true;166.822;390;195;psychophysics;109410;experimental_data;NULL;NULL;NULL;NULL;13_11_2020_8_21_25
16;24;1;sortStructureExp;bars;5;5215;saddlebrown;saddlebrown,purple,black,white,blue;300,570,480,210,390;210,240,270,300,330;32;1;1;euy73pt78rjgn1a;true;166.829;390;195;psychophysics;116634;experimental_data;NULL;NULL;NULL;NULL;13_11_2020_8_21_25
16;24;1;sortStructureExp;query;5;1798;saddlebrown;saddlebrown,purple,black,white,blue;300,570,480,210,390;210,240,270,300,330;49;1;1;euy73pt78rjgn1a;true;166.827;390;195;psychophysics;119443;experimental_data;NULL;NULL;NULL;NULL;13_11_2020_8_21_25
17;8;1;sortStructureExp;bars;2;798;white;black,white;300,39;300,33;32;2;2;euy73pt78rjgn1a;true;166.818;390;195;psychophysics;122250;experimental_data;NULL;NULL;NULL;NULL;13_11_2020_8_21_25
17;8;1;sortStructureExp;query;2;583;white;black,white;300,39;300,33;50;2;2;euy73pt78rjgn1a;true;166.805;390;195;psychophysics;123842;experimental_data;NULL;NULL;NULL;NULL;13_11_2020_8_21_25
18;19;1;sortStructureExp;bars;4;2093;black;black,white,blue,purple;300,210,480,390;180,210,240,270;32;1;1;euy73pt78rjgn1a;true;166.825;390;195;psychophysics;127946;experimental_data;NULL;NULL;NULL;NULL;13_11_2020_8_21_25
18;19;1;sortStructureExp;query;4;951;black;black,white,blue,purple;300,210,480,390;180,210,240,270;49;1;1;euy73pt78rjgn1a;true;166.834;390;195;psychophysics;129907;experimental_data;NULL;NULL;NULL;NULL;13_11_2020_8_21_25
19;25;1;sortStructureExp;bars;6;5251;white;red,yellow,orange,black,white,blue;480,120,300,390,210,570;150,180,210,240,270,300;32;5;3;euy73pt78rjgn1a;false;16.683;390;195;psychophysics;137170;experimental_data;NULL;NULL;NULL;NULL;13_11_2020_8_21_25
19;25;1;sortStructureExp;query;6;1895;white;red,yellow,orange,black,white,blue;480,120,300,390,210,570;150,180,210,240,270,300;51;5;3;euy73pt78rjgn1a;false;166.829;390;195;psychophysics;140074;experimental_data;NULL;NULL;NULL;NULL;13_11_2020_8_21_25
20;13;1;sortStructureExp;bars;3;1269;black;black,white,blue;300,480,390;270,300,330;32;1;1;euy73pt78rjgn1a;true;166.828;390;195;psychophysics;143354;experimental_data;NULL;NULL;NULL;NULL;13_11_2020_8_21_25
20;13;1;sortStructureExp;query;3;440;black;black,white,blue;300,480,390;270,300,330;49;1;1;euy73pt78rjgn1a;true;166.824;390;195;psychophysics;144802;experimental_data;NULL;NULL;NULL;NULL;13_11_2020_8_21_25
21;32;1;sortStructureExp;bars;7;6448;black;black,white,blue,green,saddlebrown,yellow,red;660,120,300,570,390,480,210;150,180,210,240,270,300,330;32;1;3;euy73pt78rjgn1a;false;166.829;390;195;psychophysics;153258;experimental_data;NULL;NULL;NULL;NULL;13_11_2020_8_21_25
21;32;1;sortStructureExp;query;7;1031;black;black,white,blue,green,saddlebrown,yellow,red;660,120,300,570,390,480,210;150,180,210,240,270,300,330;51;1;3;euy73pt78rjgn1a;false;166.833;390;195;psychophysics;155298;experimental_data;NULL;NULL;NULL;NULL;13_11_2020_8_21_25
22;14;1;sortStructureExp;bars;3;950;white;black,white,blue;480,390,300;150,180,210;32;2;2;euy73pt78rjgn1a;true;166.825;390;195;psychophysics;158258;experimental_data;NULL;NULL;NULL;NULL;13_11_2020_8_21_25
22;14;1;sortStructureExp;query;3;503;white;black,white,blue;480,390,300;150,180,210;50;2;2;euy73pt78rjgn1a;true;166.814;390;195;psychophysics;159770;experimental_data;NULL;NULL;NULL;NULL;13_11_2020_8_21_25
23;6;1;sortStructureExp;bars;2;639;black;black,white;390,3;270,3;32;1;1;euy73pt78rjgn1a;true;166.833;390;195;psychophysics;162418;experimental_data;NULL;NULL;NULL;NULL;13_11_2020_8_21_25
23;6;1;sortStructureExp;query;2;369;black;black,white;390,3;270,3;49;1;1;euy73pt78rjgn1a;true;166.814;390;195;psychophysics;163794;experimental_data;NULL;NULL;NULL;NULL;13_11_2020_8_21_25
24;20;1;sortStructureExp;bars;5;2389;pink;saddlebrown,pink,black,white,blue;210,570,480,390,300;180,210,240,270,300;32;2;2;euy73pt78rjgn1a;true;166.832;390;195;psychophysics;168194;experimental_data;NULL;NULL;NULL;NULL;13_11_2020_8_21_25
24;20;1;sortStructureExp;query;5;1161;pink;saddlebrown,pink,black,white,blue;210,570,480,390,300;180,210,240,270,300;50;2;2;euy73pt78rjgn1a;true;166.822;390;195;psychophysics;170362;experimental_data;NULL;NULL;NULL;NULL;13_11_2020_8_21_25
25;15;1;sortStructureExp;bars;4;2240;white;yellow,black,white,blue;210,300,480,390;240,270,300,330;32;3;3;euy73pt78rjgn1a;true;16.683;390;195;psychophysics;174611;experimental_data;NULL;NULL;NULL;NULL;13_11_2020_8_21_25
25;15;1;sortStructureExp;query;4;1344;white;yellow,black,white,blue;210,300,480,390;240,270,300,330;51;3;3;euy73pt78rjgn1a;true;166.847;390;195;psychophysics;176962;experimental_data;NULL;NULL;NULL;NULL;13_11_2020_8_21_25
26;29;1;sortStructureExp;bars;6;4358;orange;yellow,orange,black,white,blue,pink;390,480,570,120,210,300;150,180,210,240,270,300;32;2;1;euy73pt78rjgn1a;false;166.827;390;195;psychophysics;183330;experimental_data;NULL;NULL;NULL;NULL;13_11_2020_8_21_25
26;29;1;sortStructureExp;query;6;1350;orange;yellow,orange,black,white,blue,pink;390,480,570,120,210,300;150,180,210,240,270,300;49;2;1;euy73pt78rjgn1a;false;166.828;390;195;psychophysics;185690;experimental_data;NULL;NULL;NULL;NULL;13_11_2020_8_21_25
27;3;1;sortStructureExp;bars;1;550;black;black;390;240;32;1;1;euy73pt78rjgn1a;true;166.838;390;195;psychophysics;188250;experimental_data;NULL;NULL;NULL;NULL;13_11_2020_8_21_25
27;3;1;sortStructureExp;query;1;271;black;black;390;240;49;1;1;euy73pt78rjgn1a;true;166.801;390;195;psychophysics;189530;experimental_data;NULL;NULL;NULL;NULL;13_11_2020_8_21_25
28;7;1;sortStructureExp;bars;2;711;black;black,white;390,3;240,27;32;1;1;euy73pt78rjgn1a;true;166.833;390;195;psychophysics;192251;experimental_data;NULL;NULL;NULL;NULL;13_11_2020_8_21_25
28;7;1;sortStructureExp;query;2;583;black;black,white;390,3;240,27;49;1;1;euy73pt78rjgn1a;true;166.829;390;195;psychophysics;193842;experimental_data;NULL;NULL;NULL;NULL;13_11_2020_8_21_25
29;2;1;sortStructureExp;bars;1;542;black;black;390;240;32;1;1;euy73pt78rjgn1a;true;166.825;390;195;psychophysics;196395;experimental_data;NULL;NULL;NULL;NULL;13_11_2020_8_21_25
29;2;1;sortStructureExp;query;1;375;black;black;390;240;49;1;1;euy73pt78rjgn1a;true;166.837;390;195;psychophysics;197778;experimental_data;NULL;NULL;NULL;NULL;13_11_2020_8_21_25
30;4;1;sortStructureExp;bars;1;1053;black;black;390;240;32;1;1;euy73pt78rjgn1a;true;166.828;390;195;psychophysics;200842;experimental_data;NULL;NULL;NULL;NULL;13_11_2020_8_21_25
30;4;1;sortStructureExp;query;1;553;black;black;390;240;49;1;1;euy73pt78rjgn1a;true;166.829;390;195;psychophysics;202402;experimental_data;NULL;NULL;NULL;NULL;13_11_2020_8_21_25
31;1;1;sortStructureExp;bars;1;478;black;black;390;210;32;1;1;euy73pt78rjgn1a;true;166.831;390;195;psychophysics;204891;experimental_data;NULL;NULL;NULL;NULL;13_11_2020_8_21_25
31;1;1;sortStructureExp;query;1;345;black;black;390;210;49;1;1;euy73pt78rjgn1a;true;16.681;390;195;psychophysics;206243;experimental_data;NULL;NULL;NULL;NULL;13_11_2020_8_21_25
32;23;1;sortStructureExp;bars;5;3251;blue;red,green,black,white,blue;570,390,210,300,480;210,240,270,300,330;32;5;5;euy73pt78rjgn1a;true;166.827;390;195;psychophysics;211506;experimental_data;NULL;NULL;NULL;NULL;13_11_2020_8_21_25
32;23;1;sortStructureExp;query;5;1094;blue;red,green,black,white,blue;570,390,210,300,480;210,240,270,300,330;53;5;5;euy73pt78rjgn1a;true;166.825;390;195;psychophysics;213610;experimental_data;NULL;NULL;NULL;NULL;13_11_2020_8_21_25
33;11;1;sortStructureExp;bars;3;1143;black;black,white,blue;480,300,390;240,270,300;32;1;1;euy73pt78rjgn1a;true;166.828;390;195;psychophysics;216762;experimental_data;NULL;NULL;NULL;NULL;13_11_2020_8_21_25
33;11;1;sortStructureExp;query;3;895;black;black,white,blue;480,300,390;240,270,300;49;1;1;euy73pt78rjgn1a;true;166.831;390;195;psychophysics;218666;experimental_data;NULL;NULL;NULL;NULL;13_11_2020_8_21_25
34;28;1;sortStructureExp;bars;6;5238;pink;yellow,pink,saddlebrown,black,white,blue;390,210,120,300,480,570;180,210,240,270,300,330;32;2;4;euy73pt78rjgn1a;false;16.683;390;195;psychophysics;225914;experimental_data;NULL;NULL;NULL;NULL;13_11_2020_8_21_25
34;28;1;sortStructureExp;query;6;1672;pink;yellow,pink,saddlebrown,black,white,blue;390,210,120,300,480,570;180,210,240,270,300,330;52;2;4;euy73pt78rjgn1a;false;166.828;390;195;psychophysics;228594;experimental_data;NULL;NULL;NULL;NULL;13_11_2020_8_21_25
35;33;1;sortStructureExp;bars;7;6206;white;yellow,green,orange,purple,black,white,blue;120,660,480,210,570,300,390;150,180,210,240,270,300,330;32;6;2;euy73pt78rjgn1a;false;16.683;390;195;psychophysics;236810;experimental_data;NULL;NULL;NULL;NULL;13_11_2020_8_21_25
35;33;1;sortStructureExp;query;7;1384;white;yellow,green,orange,purple,black,white,blue;120,660,480,210,570,300,390;150,180,210,240,270,300,330;50;6;2;euy73pt78rjgn1a;false;166.827;390;195;psychophysics;239203;experimental_data;NULL;NULL;NULL;NULL;13_11_2020_8_21_25
NULL;NULL;0;NULL;end_of_block;NULL;2480;NULL;NULL;NULL;NULL;32;NULL;NULL;euy73pt78rjgn1a;NULL;NULL;NULL;NULL;html-keyboard-response;242690;experimental_data;242741;404.568;0.714286;NULL;13_11_2020_8_21_25
36;10;2;queryStructureExp;bars;3;705;black;blue,white,black;480,300,390;270,300,330;32;3;3;euy73pt78rjgn1a;true;16.683;390;195;psychophysics;244402;experimental_data;NULL;NULL;NULL;NULL;13_11_2020_8_21_25
36;10;2;queryStructureExp;query;3;1265;black;blue,white,black;480,300,390;270,300,330;51;3;3;euy73pt78rjgn1a;true;166.829;390;195;psychophysics;246674;experimental_data;NULL;NULL;NULL;NULL;13_11_2020_8_21_25
37;6;2;queryStructureExp;bars;2;886;green;saddlebrown,green;390,3;270,3;32;2;2;euy73pt78rjgn1a;true;166.828;390;195;psychophysics;249572;experimental_data;NULL;NULL;NULL;NULL;13_11_2020_8_21_25
37;6;2;queryStructureExp;query;2;926;green;saddlebrown,green;390,3;270,3;50;2;2;euy73pt78rjgn1a;true;166.837;390;195;psychophysics;251506;experimental_data;NULL;NULL;NULL;NULL;13_11_2020_8_21_25
38;12;2;queryStructureExp;bars;3;773;yellow;green,white,yellow;480,390,300;180,210,240;32;3;3;euy73pt78rjgn1a;true;16.684;390;195;psychophysics;254290;experimental_data;NULL;NULL;NULL;NULL;13_11_2020_8_21_25
38;12;2;queryStructureExp;query;3;904;yellow;green,white,yellow;480,390,300;180,210,240;51;3;3;euy73pt78rjgn1a;true;166.809;390;195;psychophysics;256202;experimental_data;NULL;NULL;NULL;NULL;13_11_2020_8_21_25
39;33;2;queryStructureExp;bars;7;5566;yellow;red,black,blue,saddlebrown,green,orange,yellow;120,660,480,210,570,300,390;150,180,210,240,270,300,330;32;7;6;euy73pt78rjgn1a;false;166.829;390;195;psychophysics;263778;experimental_data;NULL;NULL;NULL;NULL;13_11_2020_8_21_25
39;33;2;queryStructureExp;query;7;2585;yellow;red,black,blue,saddlebrown,green,orange,yellow;120,660,480,210,570,300,390;150,180,210,240,270,300,330;54;7;6;euy73pt78rjgn1a;false;166.831;390;195;psychophysics;267371;experimental_data;NULL;NULL;NULL;NULL;13_11_2020_8_21_25
40;14;2;queryStructureExp;bars;3;708;orange;yellow,black,orange;480,390,300;150,180,210;32;3;3;euy73pt78rjgn1a;true;166.796;390;195;psychophysics;270090;experimental_data;NULL;NULL;NULL;NULL;13_11_2020_8_21_25
40;14;2;queryStructureExp;query;3;928;orange;yellow,black,orange;480,390,300;150,180,210;51;3;3;euy73pt78rjgn1a;true;166.812;390;195;psychophysics;272026;experimental_data;NULL;NULL;NULL;NULL;13_11_2020_8_21_25
41;20;2;queryStructureExp;bars;5;2231;red;pink,purple,blue,white,red;210,570,480,390,300;180,210,240,270,300;32;5;5;euy73pt78rjgn1a;true;166.826;390;195;psychophysics;276266;experimental_data;NULL;NULL;NULL;NULL;13_11_2020_8_21_25
41;20;2;queryStructureExp;query;5;952;red;pink,purple,blue,white,red;210,570,480,390,300;180,210,240,270,300;53;5;5;euy73pt78rjgn1a;true;166.831;390;195;psychophysics;278226;experimental_data;NULL;NULL;NULL;NULL;13_11_2020_8_21_25
42;24;2;queryStructureExp;bars;5;3971;blue;purple,green,saddlebrown,yellow,blue;300,570,480,210,390;210,240,270,300,330;32;5;5;euy73pt78rjgn1a;true;166.829;390;195;psychophysics;284210;experimental_data;NULL;NULL;NULL;NULL;13_11_2020_8_21_25
42;24;2;queryStructureExp;query;5;1184;blue;purple,green,saddlebrown,yellow,blue;300,570,480,210,390;210,240,270,300,330;53;5;5;euy73pt78rjgn1a;true;166.829;390;195;psychophysics;286403;experimental_data;NULL;NULL;NULL;NULL;13_11_2020_8_21_25
43;17;2;queryStructureExp;bars;4;1645;blue;purple,white,yellow,blue;480,300,210,390;180,210,240,270;32;4;4;euy73pt78rjgn1a;true;166.835;390;195;psychophysics;290058;experimental_data;NULL;NULL;NULL;NULL;13_11_2020_8_21_25
43;17;2;queryStructureExp;query;4;1384;blue;purple,white,yellow,blue;480,300,210,390;180,210,240,270;52;4;4;euy73pt78rjgn1a;true;16.683;390;195;psychophysics;292450;experimental_data;NULL;NULL;NULL;NULL;13_11_2020_8_21_25
44;3;2;queryStructureExp;bars;1;691;green;green;390;240;32;1;1;euy73pt78rjgn1a;true;16.683;390;195;psychophysics;295154;experimental_data;NULL;NULL;NULL;NULL;13_11_2020_8_21_25
44;3;2;queryStructureExp;query;1;414;green;green;390;240;49;1;1;euy73pt78rjgn1a;true;16.684;390;195;psychophysics;296579;experimental_data;NULL;NULL;NULL;NULL;13_11_2020_8_21_25
45;30;2;queryStructureExp;bars;7;6275;black;orange,blue,saddlebrown,purple,green,red,black;120,660,300,390,480,210,570;150,180,210,240,270,300,330;32;7;5;euy73pt78rjgn1a;false;166.829;390;195;psychophysics;304866;experimental_data;NULL;NULL;NULL;NULL;13_11_2020_8_21_25
45;30;2;queryStructureExp;query;7;1279;black;orange,blue,saddlebrown,purple,green,red,black;120,660,300,390,480,210,570;150,180,210,240,270,300,330;53;7;5;euy73pt78rjgn1a;false;166.825;390;195;psychophysics;307154;experimental_data;NULL;NULL;NULL;NULL;13_11_2020_8_21_25
46;26;2;queryStructureExp;bars;6;3933;white;blue,red,saddlebrown,green,black,white;300,480,120,210,390,570;180,210,240,270,300,330;32;6;6;euy73pt78rjgn1a;true;166.829;390;195;psychophysics;313098;experimental_data;NULL;NULL;NULL;NULL;13_11_2020_8_21_25
46;26;2;queryStructureExp;query;6;1320;white;blue,red,saddlebrown,green,black,white;300,480,120,210,390,570;180,210,240,270,300,330;54;6;6;euy73pt78rjgn1a;true;166.827;390;195;psychophysics;315426;experimental_data;NULL;NULL;NULL;NULL;13_11_2020_8_21_25
47;25;2;queryStructureExp;bars;6;4120;red;purple,black,green,orange,blue,red;480,120,300,390,210,570;150,180,210,240,270,300;32;6;6;euy73pt78rjgn1a;true;166.836;390;195;psychophysics;321555;experimental_data;NULL;NULL;NULL;NULL;13_11_2020_8_21_25
47;25;2;queryStructureExp;query;6;1143;red;purple,black,green,orange,blue,red;480,120,300,390,210,570;150,180,210,240,270,300;54;6;6;euy73pt78rjgn1a;true;166.821;390;195;psychophysics;323706;experimental_data;NULL;NULL;NULL;NULL;13_11_2020_8_21_25
48;15;2;queryStructureExp;bars;4;2405;blue;red,orange,saddlebrown,blue;210,300,480,390;240,270,300,330;32;4;4;euy73pt78rjgn1a;true;166.829;390;195;psychophysics;328122;experimental_data;NULL;NULL;NULL;NULL;13_11_2020_8_21_25
48;15;2;queryStructureExp;query;4;1239;blue;red,orange,saddlebrown,blue;210,300,480,390;240,270,300,330;52;4;4;euy73pt78rjgn1a;true;166.835;390;195;psychophysics;330370;experimental_data;NULL;NULL;NULL;NULL;13_11_2020_8_21_25
49;7;2;queryStructureExp;bars;2;740;pink;purple,pink;390,3;240,27;32;2;2;euy73pt78rjgn1a;true;166.822;390;195;psychophysics;333122;experimental_data;NULL;NULL;NULL;NULL;13_11_2020_8_21_25
49;7;2;queryStructureExp;query;2;864;pink;purple,pink;390,3;240,27;50;2;2;euy73pt78rjgn1a;true;166.823;390;195;psychophysics;334994;experimental_data;NULL;NULL;NULL;NULL;13_11_2020_8_21_25
50;19;2;queryStructureExp;bars;4;1478;blue;white,pink,red,blue;300,210,480,390;180,210,240,270;32;4;4;euy73pt78rjgn1a;true;166.822;390;195;psychophysics;338482;experimental_data;NULL;NULL;NULL;NULL;13_11_2020_8_21_25
50;19;2;queryStructureExp;query;4;871;blue;white,pink,red,blue;300,210,480,390;180,210,240,270;52;4;4;euy73pt78rjgn1a;true;16.683;390;195;psychophysics;340362;experimental_data;NULL;NULL;NULL;NULL;13_11_2020_8_21_25
51;28;2;queryStructureExp;bars;6;4255;blue;green,orange,purple,red,yellow,blue;390,210,120,300,480,570;180,210,240,270,300,330;32;6;5;euy73pt78rjgn1a;false;16.683;390;195;psychophysics;346627;experimental_data;NULL;NULL;NULL;NULL;13_11_2020_8_21_25
51;28;2;queryStructureExp;query;6;1512;blue;green,orange,purple,red,yellow,blue;390,210,120,300,480,570;180,210,240,270,300,330;53;6;5;euy73pt78rjgn1a;false;166.828;390;195;psychophysics;349147;experimental_data;NULL;NULL;NULL;NULL;13_11_2020_8_21_25
52;21;2;queryStructureExp;bars;5;3078;blue;green,white,red,black,blue;390,480,570,300,210;150,180,210,240,270;32;5;4;euy73pt78rjgn1a;false;166.831;390;195;psychophysics;354234;experimental_data;NULL;NULL;NULL;NULL;13_11_2020_8_21_25
52;21;2;queryStructureExp;query;5;1222;blue;green,white,red,black,blue;390,480,570,300,210;150,180,210,240,270;52;5;4;euy73pt78rjgn1a;false;16.683;390;195;psychophysics;356466;experimental_data;NULL;NULL;NULL;NULL;13_11_2020_8_21_25
53;22;2;queryStructureExp;bars;5;2639;black;yellow,white,red,blue,black;570,390,210,480,300;180,210,240,270,300;32;5;4;euy73pt78rjgn1a;false;166.825;390;195;psychophysics;361115;experimental_data;NULL;NULL;NULL;NULL;13_11_2020_8_21_25
53;22;2;queryStructureExp;query;5;1055;black;yellow,white,red,blue,black;570,390,210,480,300;180,210,240,270,300;52;5;4;euy73pt78rjgn1a;false;166.832;390;195;psychophysics;363178;experimental_data;NULL;NULL;NULL;NULL;13_11_2020_8_21_25
54;11;2;queryStructureExp;bars;3;925;yellow;black,green,yellow;480,300,390;240,270,300;32;3;3;euy73pt78rjgn1a;true;166.826;390;195;psychophysics;366114;experimental_data;NULL;NULL;NULL;NULL;13_11_2020_8_21_25
54;11;2;queryStructureExp;query;3;784;yellow;black,green,yellow;480,300,390;240,270,300;51;3;3;euy73pt78rjgn1a;true;166.827;390;195;psychophysics;367906;experimental_data;NULL;NULL;NULL;NULL;13_11_2020_8_21_25
55;23;2;queryStructureExp;bars;5;2980;pink;saddlebrown,red,black,orange,pink;570,390,210,300,480;210,240,270,300,330;32;5;5;euy73pt78rjgn1a;true;16.683;390;195;psychophysics;372898;experimental_data;NULL;NULL;NULL;NULL;13_11_2020_8_21_25
55;23;2;queryStructureExp;query;5;1119;pink;saddlebrown,red,black,orange,pink;570,390,210,300,480;210,240,270,300,330;53;5;5;euy73pt78rjgn1a;true;166.824;390;195;psychophysics;375026;experimental_data;NULL;NULL;NULL;NULL;13_11_2020_8_21_25
56;8;2;queryStructureExp;bars;2;663;pink;orange,pink;300,39;300,33;32;2;2;euy73pt78rjgn1a;true;166.831;390;195;psychophysics;377698;experimental_data;NULL;NULL;NULL;NULL;13_11_2020_8_21_25
56;8;2;queryStructureExp;query;2;537;pink;orange,pink;300,39;300,33;50;2;2;euy73pt78rjgn1a;true;166.828;390;195;psychophysics;379243;experimental_data;NULL;NULL;NULL;NULL;13_11_2020_8_21_25
57;16;2;queryStructureExp;bars;4;1973;blue;green,red,pink,blue;210,480,390,300;240,270,300,330;32;4;4;euy73pt78rjgn1a;true;166.831;390;195;psychophysics;383226;experimental_data;NULL;NULL;NULL;NULL;13_11_2020_8_21_25
57;16;2;queryStructureExp;query;4;855;blue;green,red,pink,blue;210,480,390,300;240,270,300,330;52;4;4;euy73pt78rjgn1a;true;16.682;390;195;psychophysics;385090;experimental_data;NULL;NULL;NULL;NULL;13_11_2020_8_21_25
58;18;2;queryStructureExp;bars;4;1372;saddlebrown;blue,orange,black,saddlebrown;390,300,480,210;150,180,210,240;32;4;3;euy73pt78rjgn1a;false;166.829;390;195;psychophysics;388474;experimental_data;NULL;NULL;NULL;NULL;13_11_2020_8_21_25
58;18;2;queryStructureExp;query;4;1008;saddlebrown;blue,orange,black,saddlebrown;390,300,480,210;150,180,210,240;51;4;3;euy73pt78rjgn1a;false;166.824;390;195;psychophysics;390490;experimental_data;NULL;NULL;NULL;NULL;13_11_2020_8_21_25
59;0;2;queryStructureExp;bars;1;662;purple;purple;390;330;32;1;1;euy73pt78rjgn1a;true;166.821;390;195;psychophysics;393163;experimental_data;NULL;NULL;NULL;NULL;13_11_2020_8_21_25
59;0;2;queryStructureExp;query;1;590;purple;purple;390;330;49;1;1;euy73pt78rjgn1a;true;166.838;390;195;psychophysics;394762;experimental_data;NULL;NULL;NULL;NULL;13_11_2020_8_21_25
60;27;2;queryStructureExp;bars;6;3534;red;green,purple,saddlebrown,white,orange,red;480,570,300,120,210,390;180,210,240,270,300,330;32;6;5;euy73pt78rjgn1a;false;166.831;390;195;psychophysics;400306;experimental_data;NULL;NULL;NULL;NULL;13_11_2020_8_21_25
60;27;2;queryStructureExp;query;6;1586;red;green,purple,saddlebrown,white,orange,red;480,570,300,120,210,390;180,210,240,270,300,330;53;6;5;euy73pt78rjgn1a;false;166.829;390;195;psychophysics;402899;experimental_data;NULL;NULL;NULL;NULL;13_11_2020_8_21_25
61;32;2;queryStructureExp;bars;7;4870;green;black,yellow,red,blue,saddlebrown,orange,green;660,120,300,570,390,480,210;150,180,210,240,270,300,330;32;7;6;euy73pt78rjgn1a;false;166.828;390;195;psychophysics;409778;experimental_data;NULL;NULL;NULL;NULL;13_11_2020_8_21_25
61;32;2;queryStructureExp;query;7;1912;green;black,yellow,red,blue,saddlebrown,orange,green;660,120,300,570,390,480,210;150,180,210,240,270,300,330;54;7;6;euy73pt78rjgn1a;false;166.824;390;195;psychophysics;412698;experimental_data;NULL;NULL;NULL;NULL;13_11_2020_8_21_25
62;5;2;queryStructureExp;bars;2;550;blue;saddlebrown,blue;390,3;150,18;32;2;2;euy73pt78rjgn1a;true;166.835;390;195;psychophysics;415258;experimental_data;NULL;NULL;NULL;NULL;13_11_2020_8_21_25
62;5;2;queryStructureExp;query;2;865;blue;saddlebrown,blue;390,3;150,18;50;2;2;euy73pt78rjgn1a;true;16.683;390;195;psychophysics;417132;experimental_data;NULL;NULL;NULL;NULL;13_11_2020_8_21_25
63;29;2;queryStructureExp;bars;6;3140;green;pink,red,orange,blue,yellow,green;390,480,570,120,210,300;150,180,210,240,270,300;32;6;5;euy73pt78rjgn1a;false;166.826;390;195;psychophysics;422283;experimental_data;NULL;NULL;NULL;NULL;13_11_2020_8_21_25
63;29;2;queryStructureExp;query;6;1246;green;pink,red,orange,blue,yellow,green;390,480,570,120,210,300;150,180,210,240,270,300;53;6;5;euy73pt78rjgn1a;false;16.684;390;195;psychophysics;424538;experimental_data;NULL;NULL;NULL;NULL;13_11_2020_8_21_25
64;1;2;queryStructureExp;bars;1;598;green;green;390;210;32;1;1;euy73pt78rjgn1a;true;166.836;390;195;psychophysics;427146;experimental_data;NULL;NULL;NULL;NULL;13_11_2020_8_21_25
64;1;2;queryStructureExp;query;1;497;green;green;390;210;49;1;1;euy73pt78rjgn1a;true;166.827;390;195;psychophysics;428650;experimental_data;NULL;NULL;NULL;NULL;13_11_2020_8_21_25
65;34;2;queryStructureExp;bars;7;6037;red;blue,saddlebrown,purple,white,yellow,pink,red;300,120,570,210,390,480,660;150,180,210,240,270,300,330;32;7;7;euy73pt78rjgn1a;true;166.829;390;195;psychophysics;436698;experimental_data;NULL;NULL;NULL;NULL;13_11_2020_8_21_25
65;34;2;queryStructureExp;query;7;1384;red;blue,saddlebrown,purple,white,yellow,pink,red;300,120,570,210,390,480,660;150,180,210,240,270,300,330;55;7;7;euy73pt78rjgn1a;true;166.824;390;195;psychophysics;439090;experimental_data;NULL;NULL;NULL;NULL;13_11_2020_8_21_25
66;2;2;queryStructureExp;bars;1;469;saddlebrown;saddlebrown;390;240;32;1;1;euy73pt78rjgn1a;true;166.837;390;195;psychophysics;441570;experimental_data;NULL;NULL;NULL;NULL;13_11_2020_8_21_25
66;2;2;queryStructureExp;query;1;792;saddlebrown;saddlebrown;390;240;49;1;1;euy73pt78rjgn1a;true;166.828;390;195;psychophysics;443370;experimental_data;NULL;NULL;NULL;NULL;13_11_2020_8_21_25
67;9;2;queryStructureExp;bars;2;662;red;saddlebrown,red;300,39;300,33;32;2;2;euy73pt78rjgn1a;true;16.683;390;195;psychophysics;446042;experimental_data;NULL;NULL;NULL;NULL;13_11_2020_8_21_25
67;9;2;queryStructureExp;query;2;705;red;saddlebrown,red;300,39;300,33;50;2;2;euy73pt78rjgn1a;true;166.833;390;195;psychophysics;447754;experimental_data;NULL;NULL;NULL;NULL;13_11_2020_8_21_25
68;31;2;queryStructureExp;bars;7;4669;saddlebrown;purple,white,black,orange,blue,red,saddlebrown;120,300,390,210,480,570,660;150,180,210,240,270,300,330;32;7;5;euy73pt78rjgn1a;false;16.683;390;195;psychophysics;454435;experimental_data;NULL;NULL;NULL;NULL;13_11_2020_8_21_25
68;31;2;queryStructureExp;query;7;1223;saddlebrown;purple,white,black,orange,blue,red,saddlebrown;120,300,390,210,480,570,660;150,180,210,240,270,300,330;53;7;5;euy73pt78rjgn1a;false;166.825;390;195;psychophysics;456665;experimental_data;NULL;NULL;NULL;NULL;13_11_2020_8_21_25
69;13;2;queryStructureExp;bars;3;647;purple;saddlebrown,white,purple;300,480,390;270,300,330;32;3;3;euy73pt78rjgn1a;true;166.829;390;195;psychophysics;459322;experimental_data;NULL;NULL;NULL;NULL;13_11_2020_8_21_25
69;13;2;queryStructureExp;query;3;560;purple;saddlebrown,white,purple;300,480,390;270,300,330;51;3;3;euy73pt78rjgn1a;true;166.832;390;195;psychophysics;460890;experimental_data;NULL;NULL;NULL;NULL;13_11_2020_8_21_25
70;4;2;queryStructureExp;bars;1;1045;blue;blue;390;240;32;1;1;euy73pt78rjgn1a;true;166.819;390;195;psychophysics;463946;experimental_data;NULL;NULL;NULL;NULL;13_11_2020_8_21_25
70;4;2;queryStructureExp;query;1;592;blue;blue;390;240;49;1;1;euy73pt78rjgn1a;true;166.827;390;195;psychophysics;465546;experimental_data;NULL;NULL;NULL;NULL;13_11_2020_8_21_25
NULL;NULL;0;NULL;end_of_block;NULL;4873;NULL;NULL;NULL;NULL;32;NULL;NULL;euy73pt78rjgn1a;NULL;NULL;NULL;NULL;html-keyboard-response;471426;experimental_data;471477;785.795;0.714286;NULL;13_11_2020_8_21_25
71;11;3;noStructureCont;bars;3;1597;green;orange,pink,green;300,390,480;240,270,300;32;3;3;euy73pt78rjgn1a;true;166.831;390;195;psychophysics;474035;experimental_data;NULL;NULL;NULL;NULL;13_11_2020_8_21_25
71;11;3;noStructureCont;query;3;775;green;orange,pink,green;300,390,480;240,270,300;51;3;3;euy73pt78rjgn1a;true;166.828;390;195;psychophysics;475817;experimental_data;NULL;NULL;NULL;NULL;13_11_2020_8_21_25
72;17;3;noStructureCont;bars;4;1550;saddlebrown;blue,saddlebrown,red,orange;210,300,390,480;180,210,240,270;32;2;4;euy73pt78rjgn1a;false;166.835;390;195;psychophysics;479378;experimental_data;NULL;NULL;NULL;NULL;13_11_2020_8_21_25
72;17;3;noStructureCont;query;4;1249;saddlebrown;blue,saddlebrown,red,orange;210,300,390,480;180,210,240,270;52;2;4;euy73pt78rjgn1a;false;166.831;390;195;psychophysics;481634;experimental_data;NULL;NULL;NULL;NULL;13_11_2020_8_21_25
73;30;3;noStructureCont;bars;7;2636;blue;orange,saddlebrown,white,yellow,blue,pink,red;120,210,300,390,480,570,660;150,180,210,240,270,300,330;32;5;5;euy73pt78rjgn1a;true;166.826;390;195;psychophysics;486282;experimental_data;NULL;NULL;NULL;NULL;13_11_2020_8_21_25
73;30;3;noStructureCont;query;7;1385;blue;orange,saddlebrown,white,yellow,blue,pink,red;120,210,300,390,480,570,660;150,180,210,240,270,300,330;53;5;5;euy73pt78rjgn1a;true;166.834;390;195;psychophysics;488674;experimental_data;NULL;NULL;NULL;NULL;13_11_2020_8_21_25
74;10;3;noStructureCont;bars;3;722;white;white,pink,orange;300,390,480;270,300,330;32;1;1;euy73pt78rjgn1a;true;166.836;390;195;psychophysics;491410;experimental_data;NULL;NULL;NULL;NULL;13_11_2020_8_21_25
74;10;3;noStructureCont;query;3;569;white;white,pink,orange;300,390,480;270,300,330;49;1;1;euy73pt78rjgn1a;true;166.839;390;195;psychophysics;492986;experimental_data;NULL;NULL;NULL;NULL;13_11_2020_8_21_25
75;4;3;noStructureCont;bars;1;598;white;white;390;240;32;1;1;euy73pt78rjgn1a;true;166.818;390;195;psychophysics;495602;experimental_data;NULL;NULL;NULL;NULL;13_11_2020_8_21_25
75;4;3;noStructureCont;query;1;376;white;white;390;240;49;1;1;euy73pt78rjgn1a;true;16.683;390;195;psychophysics;496986;experimental_data;NULL;NULL;NULL;NULL;13_11_2020_8_21_25
76;20;3;noStructureCont;bars;5;1582;purple;purple,white,yellow,orange,red;210,300,390,480,570;180,210,240,270,300;32;1;4;euy73pt78rjgn1a;false;166.829;390;195;psychophysics;500578;experimental_data;NULL;NULL;NULL;NULL;13_11_2020_8_21_25
76;20;3;noStructureCont;query;5;888;purple;purple,white,yellow,orange,red;210,300,390,480,570;180,210,240,270,300;52;1;4;euy73pt78rjgn1a;false;166.836;390;195;psychophysics;502474;experimental_data;NULL;NULL;NULL;NULL;13_11_2020_8_21_25
77;12;3;noStructureCont;bars;3;663;green;green,white,yellow;300,390,480;180,210,240;32;1;1;euy73pt78rjgn1a;true;166.825;390;195;psychophysics;505148;experimental_data;NULL;NULL;NULL;NULL;13_11_2020_8_21_25
77;12;3;noStructureCont;query;3;527;green;green,white,yellow;300,390,480;180,210,240;49;1;1;euy73pt78rjgn1a;true;166.826;390;195;psychophysics;506683;experimental_data;NULL;NULL;NULL;NULL;13_11_2020_8_21_25
78;2;3;noStructureCont;bars;1;571;black;black;390;240;32;1;1;euy73pt78rjgn1a;true;166.827;390;195;psychophysics;509266;experimental_data;NULL;NULL;NULL;NULL;13_11_2020_8_21_25
78;2;3;noStructureCont;query;1;320;black;black;390;240;49;1;1;euy73pt78rjgn1a;true;166.881;390;195;psychophysics;510594;experimental_data;NULL;NULL;NULL;NULL;13_11_2020_8_21_25
79;24;3;noStructureCont;bars;5;2542;saddlebrown;green,yellow,pink,red,saddlebrown;210,300,390,480,570;210,240,270,300,330;32;5;5;euy73pt78rjgn1a;true;166.829;390;195;psychophysics;515146;experimental_data;NULL;NULL;NULL;NULL;13_11_2020_8_21_25
79;24;3;noStructureCont;query;5;1545;saddlebrown;green,yellow,pink,red,saddlebrown;210,300,390,480,570;210,240,270,300,330;53;5;5;euy73pt78rjgn1a;true;166.827;390;195;psychophysics;517698;experimental_data;NULL;NULL;NULL;NULL;13_11_2020_8_21_25
80;13;3;noStructureCont;bars;3;702;pink;orange,red,pink;300,390,480;270,300,330;32;3;3;euy73pt78rjgn1a;true;166.838;390;195;psychophysics;520410;experimental_data;NULL;NULL;NULL;NULL;13_11_2020_8_21_25
80;13;3;noStructureCont;query;3;560;pink;orange,red,pink;300,390,480;270,300,330;51;3;3;euy73pt78rjgn1a;true;166.814;390;195;psychophysics;521978;experimental_data;NULL;NULL;NULL;NULL;13_11_2020_8_21_25
81;16;3;noStructureCont;bars;4;1958;purple;purple,saddlebrown,orange,black;210,300,390,480;240,270,300,330;32;1;2;euy73pt78rjgn1a;false;166.828;390;195;psychophysics;525946;experimental_data;NULL;NULL;NULL;NULL;13_11_2020_8_21_25
81;16;3;noStructureCont;query;4;1240;purple;purple,saddlebrown,orange,black;210,300,390,480;240,270,300,330;50;1;2;euy73pt78rjgn1a;false;166.829;390;195;psychophysics;528194;experimental_data;NULL;NULL;NULL;NULL;13_11_2020_8_21_25
82;9;3;noStructureCont;bars;2;526;white;saddlebrown,white;300,39;300,33;32;2;2;euy73pt78rjgn1a;true;166.825;390;195;psychophysics;530730;experimental_data;NULL;NULL;NULL;NULL;13_11_2020_8_21_25
82;9;3;noStructureCont;query;2;497;white;saddlebrown,white;300,39;300,33;50;2;2;euy73pt78rjgn1a;true;166.822;390;195;psychophysics;532233;experimental_data;NULL;NULL;NULL;NULL;13_11_2020_8_21_25
83;26;3;noStructureCont;bars;6;2989;blue;black,red,blue,green,pink,yellow;120,210,300,390,480,570;180,210,240,270,300,330;32;3;3;euy73pt78rjgn1a;true;16.683;390;195;psychophysics;537234;experimental_data;NULL;NULL;NULL;NULL;13_11_2020_8_21_25
83;26;3;noStructureCont;query;6;1216;blue;black,red,blue,green,pink,yellow;120,210,300,390,480,570;180,210,240,270,300,330;51;3;3;euy73pt78rjgn1a;true;166.828;390;195;psychophysics;539458;experimental_data;NULL;NULL;NULL;NULL;13_11_2020_8_21_25
84;27;3;noStructureCont;bars;6;3436;black;green,black,yellow,blue,purple,orange;120,210,300,390,480,570;180,210,240,270,300,330;32;2;4;euy73pt78rjgn1a;false;166.829;390;195;psychophysics;544906;experimental_data;NULL;NULL;NULL;NULL;13_11_2020_8_21_25
84;27;3;noStructureCont;query;6;992;black;green,black,yellow,blue,purple,orange;120,210,300,390,480,570;180,210,240,270,300,330;52;2;4;euy73pt78rjgn1a;false;166.828;390;195;psychophysics;546906;experimental_data;NULL;NULL;NULL;NULL;13_11_2020_8_21_25
85;5;3;noStructureCont;bars;2;830;black;black,white;300,39;150,18;32;1;1;euy73pt78rjgn1a;true;16.682;390;195;psychophysics;549746;experimental_data;NULL;NULL;NULL;NULL;13_11_2020_8_21_25
85;5;3;noStructureCont;query;2;496;black;black,white;300,39;150,18;49;1;1;euy73pt78rjgn1a;true;16.683;390;195;psychophysics;551250;experimental_data;NULL;NULL;NULL;NULL;13_11_2020_8_21_25
86;21;3;noStructureCont;bars;5;2502;orange;orange,green,black,blue,purple;210,300,390,480,570;150,180,210,240,270;32;1;1;euy73pt78rjgn1a;true;166.826;390;195;psychophysics;555762;experimental_data;NULL;NULL;NULL;NULL;13_11_2020_8_21_25
86;21;3;noStructureCont;query;5;1367;orange;orange,green,black,blue,purple;210,300,390,480,570;150,180,210,240,270;49;1;1;euy73pt78rjgn1a;true;166.827;390;195;psychophysics;558138;experimental_data;NULL;NULL;NULL;NULL;13_11_2020_8_21_25
87;15;3;noStructureCont;bars;4;1670;blue;red,green,blue,saddlebrown;210,300,390,480;240,270,300,330;32;3;3;euy73pt78rjgn1a;true;166.827;390;195;psychophysics;561818;experimental_data;NULL;NULL;NULL;NULL;13_11_2020_8_21_25
87;15;3;noStructureCont;query;4;680;blue;red,green,blue,saddlebrown;210,300,390,480;240,270,300,330;51;3;3;euy73pt78rjgn1a;true;166.834;390;195;psychophysics;563506;experimental_data;NULL;NULL;NULL;NULL;13_11_2020_8_21_25
88;29;3;noStructureCont;bars;6;2926;purple;pink,yellow,saddlebrown,purple,orange,green;120,210,300,390,480,570;150,180,210,240,270,300;32;4;4;euy73pt78rjgn1a;true;166.832;390;195;psychophysics;568442;experimental_data;NULL;NULL;NULL;NULL;13_11_2020_8_21_25
88;29;3;noStructureCont;query;6;880;purple;pink,yellow,saddlebrown,purple,orange,green;120,210,300,390,480,570;150,180,210,240,270,300;52;4;4;euy73pt78rjgn1a;true;166.841;390;195;psychophysics;570331;experimental_data;NULL;NULL;NULL;NULL;13_11_2020_8_21_25
89;19;3;noStructureCont;bars;4;2253;green;pink,green,red,orange;210,300,390,480;180,210,240,270;32;2;2;euy73pt78rjgn1a;true;166.826;390;195;psychophysics;574594;experimental_data;NULL;NULL;NULL;NULL;13_11_2020_8_21_25
89;19;3;noStructureCont;query;4;1398;green;pink,green,red,orange;210,300,390,480;180,210,240,270;50;2;2;euy73pt78rjgn1a;true;166.832;390;195;psychophysics;577002;experimental_data;NULL;NULL;NULL;NULL;13_11_2020_8_21_25
90;34;3;noStructureCont;bars;7;4982;red;blue,orange,black,pink,white,green,red;120,210,300,390,480,570,660;150,180,210,240,270,300,330;32;7;7;euy73pt78rjgn1a;true;166.827;390;195;psychophysics;583994;experimental_data;NULL;NULL;NULL;NULL;13_11_2020_8_21_25
90;34;3;noStructureCont;query;7;1919;red;blue,orange,black,pink,white,green,red;120,210,300,390,480,570,660;150,180,210,240,270,300,330;55;7;7;euy73pt78rjgn1a;true;166.832;390;195;psychophysics;586922;experimental_data;NULL;NULL;NULL;NULL;13_11_2020_8_21_25
91;1;3;noStructureCont;bars;1;660;pink;pink;390;210;32;1;1;euy73pt78rjgn1a;true;166.832;390;195;psychophysics;589594;experimental_data;NULL;NULL;NULL;NULL;13_11_2020_8_21_25
91;1;3;noStructureCont;query;1;415;pink;pink;390;210;49;1;1;euy73pt78rjgn1a;true;166.833;390;195;psychophysics;591018;experimental_data;NULL;NULL;NULL;NULL;13_11_2020_8_21_25
92;3;3;noStructureCont;bars;1;573;saddlebrown;saddlebrown;390;240;32;1;1;euy73pt78rjgn1a;true;166.812;390;195;psychophysics;593602;experimental_data;NULL;NULL;NULL;NULL;13_11_2020_8_21_25
92;3;3;noStructureCont;query;1;344;saddlebrown;saddlebrown;390;240;49;1;1;euy73pt78rjgn1a;true;166.832;390;195;psychophysics;594954;experimental_data;NULL;NULL;NULL;NULL;13_11_2020_8_21_25
93;8;3;noStructureCont;bars;2;550;pink;orange,pink;300,39;300,33;32;2;2;euy73pt78rjgn1a;true;166.833;390;195;psychophysics;597514;experimental_data;NULL;NULL;NULL;NULL;13_11_2020_8_21_25
93;8;3;noStructureCont;query;2;493;pink;orange,pink;300,39;300,33;50;2;2;euy73pt78rjgn1a;true;166.804;390;195;psychophysics;599018;experimental_data;NULL;NULL;NULL;NULL;13_11_2020_8_21_25
94;31;3;noStructureCont;bars;7;2341;blue;black,purple,blue,red,white,green,yellow;120,210,300,390,480,570,660;150,180,210,240,270,300,330;32;3;6;euy73pt78rjgn1a;false;166.828;390;195;psychophysics;603370;experimental_data;NULL;NULL;NULL;NULL;13_11_2020_8_21_25
94;31;3;noStructureCont;query;7;1395;blue;black,purple,blue,red,white,green,yellow;120,210,300,390,480,570,660;150,180,210,240,270,300,330;54;3;6;euy73pt78rjgn1a;false;166.822;390;195;psychophysics;605778;experimental_data;NULL;NULL;NULL;NULL;13_11_2020_8_21_25
95;28;3;noStructureCont;bars;6;2054;orange;orange,purple,green,red,pink,black;120,210,300,390,480,570;180,210,240,270,300,330;32;1;3;euy73pt78rjgn1a;false;166.828;390;195;psychophysics;609842;experimental_data;NULL;NULL;NULL;NULL;13_11_2020_8_21_25
95;28;3;noStructureCont;query;6;2058;orange;orange,purple,green,red,pink,black;120,210,300,390,480,570;180,210,240,270,300,330;51;1;3;euy73pt78rjgn1a;false;166.828;390;195;psychophysics;612914;experimental_data;NULL;NULL;NULL;NULL;13_11_2020_8_21_25
96;6;3;noStructureCont;bars;2;750;orange;orange,pink;300,39;270,3;32;1;1;euy73pt78rjgn1a;true;166.824;390;195;psychophysics;615674;experimental_data;NULL;NULL;NULL;NULL;13_11_2020_8_21_25
96;6;3;noStructureCont;query;2;519;orange;orange,pink;300,39;270,3;49;1;1;euy73pt78rjgn1a;true;166.836;390;195;psychophysics;617201;experimental_data;NULL;NULL;NULL;NULL;13_11_2020_8_21_25
97;18;3;noStructureCont;bars;4;1174;saddlebrown;red,purple,yellow,saddlebrown;210,300,390,480;150,180,210,240;32;4;4;euy73pt78rjgn1a;true;166.835;390;195;psychophysics;620386;experimental_data;NULL;NULL;NULL;NULL;13_11_2020_8_21_25
97;18;3;noStructureCont;query;4;854;saddlebrown;red,purple,yellow,saddlebrown;210,300,390,480;150,180,210,240;52;4;4;euy73pt78rjgn1a;true;166.829;390;195;psychophysics;622249;experimental_data;NULL;NULL;NULL;NULL;13_11_2020_8_21_25
98;32;3;noStructureCont;bars;7;3453;black;blue,purple,yellow,orange,pink,saddlebrown,black;120,210,300,390,480,570,660;150,180,210,240,270,300,330;32;7;7;euy73pt78rjgn1a;true;166.829;390;195;psychophysics;627713;experimental_data;NULL;NULL;NULL;NULL;13_11_2020_8_21_25
98;32;3;noStructureCont;query;7;1206;black;blue,purple,yellow,orange,pink,saddlebrown,black;120,210,300,390,480,570,660;150,180,210,240,270,300,330;55;7;7;euy73pt78rjgn1a;true;166.826;390;195;psychophysics;629929;experimental_data;NULL;NULL;NULL;NULL;13_11_2020_8_21_25
99;33;3;noStructureCont;bars;7;2870;yellow;red,blue,orange,green,pink,yellow,white;120,210,300,390,480,570,660;150,180,210,240,270,300,330;32;6;6;euy73pt78rjgn1a;true;166.827;390;195;psychophysics;634810;experimental_data;NULL;NULL;NULL;NULL;13_11_2020_8_21_25
99;33;3;noStructureCont;query;7;1328;yellow;red,blue,orange,green,pink,yellow,white;120,210,300,390,480,570,660;150,180,210,240,270,300,330;54;6;6;euy73pt78rjgn1a;true;166.826;390;195;psychophysics;637145;experimental_data;NULL;NULL;NULL;NULL;13_11_2020_8_21_25
100;23;3;noStructureCont;bars;5;1374;saddlebrown;blue,purple,saddlebrown,pink,green;210,300,390,480,570;210,240,270,300,330;32;3;2;euy73pt78rjgn1a;false;166.842;390;195;psychophysics;640530;experimental_data;NULL;NULL;NULL;NULL;13_11_2020_8_21_25
100;23;3;noStructureCont;query;5;1296;saddlebrown;blue,purple,saddlebrown,pink,green;210,300,390,480,570;210,240,270,300,330;50;3;2;euy73pt78rjgn1a;false;166.827;390;195;psychophysics;642833;experimental_data;NULL;NULL;NULL;NULL;13_11_2020_8_21_25
101;0;3;noStructureCont;bars;1;575;green;green;390;330;32;1;1;euy73pt78rjgn1a;true;166.819;390;195;psychophysics;645418;experimental_data;NULL;NULL;NULL;NULL;13_11_2020_8_21_25
101;0;3;noStructureCont;query;1;320;green;green;390;330;49;1;1;euy73pt78rjgn1a;true;166.799;390;195;psychophysics;646746;experimental_data;NULL;NULL;NULL;NULL;13_11_2020_8_21_25
102;14;3;noStructureCont;bars;3;785;red;orange,white,red;300,390,480;150,180,210;32;3;3;euy73pt78rjgn1a;true;166.827;390;195;psychophysics;649545;experimental_data;NULL;NULL;NULL;NULL;13_11_2020_8_21_25
102;14;3;noStructureCont;query;3;1024;red;orange,white,red;300,390,480;150,180,210;51;3;3;euy73pt78rjgn1a;true;166.823;390;195;psychophysics;651577;experimental_data;NULL;NULL;NULL;NULL;13_11_2020_8_21_25
103;25;3;noStructureCont;bars;6;1934;blue;saddlebrown,orange,yellow,blue,red,white;120,210,300,390,480,570;150,180,210,240,270,300;32;4;4;euy73pt78rjgn1a;true;166.825;390;195;psychophysics;655522;experimental_data;NULL;NULL;NULL;NULL;13_11_2020_8_21_25
103;25;3;noStructureCont;query;6;1238;blue;saddlebrown,orange,yellow,blue,red,white;120,210,300,390,480,570;150,180,210,240,270,300;52;4;4;euy73pt78rjgn1a;true;16.683;390;195;psychophysics;657769;experimental_data;NULL;NULL;NULL;NULL;13_11_2020_8_21_25
104;22;3;noStructureCont;bars;5;1547;red;black,white,red,orange,yellow;210,300,390,480,570;180,210,240,270,300;32;3;4;euy73pt78rjgn1a;false;166.833;390;195;psychophysics;661330;experimental_data;NULL;NULL;NULL;NULL;13_11_2020_8_21_25
104;22;3;noStructureCont;query;5;1319;red;black,white,red,orange,yellow;210,300,390,480,570;180,210,240,270,300;52;3;4;euy73pt78rjgn1a;false;166.831;390;195;psychophysics;663657;experimental_data;NULL;NULL;NULL;NULL;13_11_2020_8_21_25
105;7;3;noStructureCont;bars;2;527;blue;orange,blue;300,39;240,27;32;2;2;euy73pt78rjgn1a;true;166.844;390;195;psychophysics;666194;experimental_data;NULL;NULL;NULL;NULL;13_11_2020_8_21_25
105;7;3;noStructureCont;query;2;400;blue;orange,blue;300,39;240,27;50;2;2;euy73pt78rjgn1a;true;16.683;390;195;psychophysics;667601;experimental_data;NULL;NULL;NULL;NULL;13_11_2020_8_21_25
NULL;NULL;0;NULL;end_of_block;NULL;4041;NULL;NULL;NULL;NULL;32;NULL;NULL;euy73pt78rjgn1a;NULL;NULL;NULL;NULL;html-keyboard-response;672650;experimental_data;672700;112.117;0.771429;NULL;13_11_2020_8_21_25
106;23;4;sortStructureCont;bars;5;2744;pink;black,yellow,red,white,pink;210,300,390,480,570;210,240,270,300,330;32;5;5;euy73pt78rjgn1a;true;166.831;390;195;psychophysics;676402;experimental_data;NULL;NULL;NULL;NULL;13_11_2020_8_21_25
106;23;4;sortStructureCont;query;5;1239;pink;black,yellow,red,white,pink;210,300,390,480,570;210,240,270,300,330;53;5;5;euy73pt78rjgn1a;true;166.829;390;195;psychophysics;678650;experimental_data;NULL;NULL;NULL;NULL;13_11_2020_8_21_25
107;1;4;sortStructureCont;bars;1;593;red;red;390;210;32;1;1;euy73pt78rjgn1a;true;166.816;390;195;psychophysics;681290;experimental_data;NULL;NULL;NULL;NULL;13_11_2020_8_21_25
107;1;4;sortStructureCont;query;1;353;red;red;390;210;49;1;1;euy73pt78rjgn1a;true;166.835;390;195;psychophysics;682650;experimental_data;NULL;NULL;NULL;NULL;13_11_2020_8_21_25
108;2;4;sortStructureCont;bars;1;526;red;red;390;240;32;1;1;euy73pt78rjgn1a;true;16.683;390;195;psychophysics;685186;experimental_data;NULL;NULL;NULL;NULL;13_11_2020_8_21_25
108;2;4;sortStructureCont;query;1;328;red;red;390;240;49;1;1;euy73pt78rjgn1a;true;166.815;390;195;psychophysics;686522;experimental_data;NULL;NULL;NULL;NULL;13_11_2020_8_21_25
109;22;4;sortStructureCont;bars;5;1416;red;black,red,white,pink,blue;210,300,390,480,570;180,210,240,270,300;32;2;2;euy73pt78rjgn1a;true;166.833;390;195;psychophysics;689948;experimental_data;NULL;NULL;NULL;NULL;13_11_2020_8_21_25
109;22;4;sortStructureCont;query;5;958;red;black,red,white,pink,blue;210,300,390,480,570;180,210,240,270,300;50;2;2;euy73pt78rjgn1a;true;166.827;390;195;psychophysics;691914;experimental_data;NULL;NULL;NULL;NULL;13_11_2020_8_21_25
110;10;4;sortStructureCont;bars;3;692;white;red,white,pink;300,390,480;270,300,330;32;2;2;euy73pt78rjgn1a;true;16.683;390;195;psychophysics;694618;experimental_data;NULL;NULL;NULL;NULL;13_11_2020_8_21_25
110;10;4;sortStructureCont;query;3;1177;white;red,white,pink;300,390,480;270,300,330;50;2;2;euy73pt78rjgn1a;true;16.684;390;195;psychophysics;696803;experimental_data;NULL;NULL;NULL;NULL;13_11_2020_8_21_25
111;24;4;sortStructureCont;bars;5;1701;blue;blue,red,white,pink,orange;210,300,390,480,570;210,240,270,300,330;32;1;1;euy73pt78rjgn1a;true;16.683;390;195;psychophysics;700514;experimental_data;NULL;NULL;NULL;NULL;13_11_2020_8_21_25
111;24;4;sortStructureCont;query;5;600;blue;blue,red,white,pink,orange;210,300,390,480,570;210,240,270,300,330;49;1;1;euy73pt78rjgn1a;true;166.818;390;195;psychophysics;702122;experimental_data;NULL;NULL;NULL;NULL;13_11_2020_8_21_25
112;15;4;sortStructureCont;bars;4;2164;pink;red,white,pink,yellow;210,300,390,480;240,270,300,330;32;3;3;euy73pt78rjgn1a;true;166.828;390;195;psychophysics;706298;experimental_data;NULL;NULL;NULL;NULL;13_11_2020_8_21_25
112;15;4;sortStructureCont;query;4;794;pink;red,white,pink,yellow;210,300,390,480;240,270,300,330;51;3;3;euy73pt78rjgn1a;true;16.686;390;195;psychophysics;708098;experimental_data;NULL;NULL;NULL;NULL;13_11_2020_8_21_25
113;4;4;sortStructureCont;bars;1;534;red;red;390;240;32;1;1;euy73pt78rjgn1a;true;166.823;390;195;psychophysics;710642;experimental_data;NULL;NULL;NULL;NULL;13_11_2020_8_21_25
113;4;4;sortStructureCont;query;1;383;red;red;390;240;49;1;1;euy73pt78rjgn1a;true;166.824;390;195;psychophysics;712034;experimental_data;NULL;NULL;NULL;NULL;13_11_2020_8_21_25
114;14;4;sortStructureCont;bars;3;677;white;red,white,pink;300,390,480;150,180,210;32;2;2;euy73pt78rjgn1a;true;166.832;390;195;psychophysics;714722;experimental_data;NULL;NULL;NULL;NULL;13_11_2020_8_21_25
114;14;4;sortStructureCont;query;3;631;white;red,white,pink;300,390,480;150,180,210;50;2;2;euy73pt78rjgn1a;true;166.819;390;195;psychophysics;716362;experimental_data;NULL;NULL;NULL;NULL;13_11_2020_8_21_25
115;17;4;sortStructureCont;bars;4;1148;yellow;red,white,pink,yellow;210,300,390,480;180,210,240,270;32;4;4;euy73pt78rjgn1a;true;16.683;390;195;psychophysics;719522;experimental_data;NULL;NULL;NULL;NULL;13_11_2020_8_21_25
115;17;4;sortStructureCont;query;4;848;yellow;red,white,pink,yellow;210,300,390,480;180,210,240,270;52;4;4;euy73pt78rjgn1a;true;166.831;390;195;psychophysics;721378;experimental_data;NULL;NULL;NULL;NULL;13_11_2020_8_21_25
116;13;4;sortStructureCont;bars;3;779;red;red,white,pink;300,390,480;270,300,330;32;1;1;euy73pt78rjgn1a;true;166.831;390;195;psychophysics;724170;experimental_data;NULL;NULL;NULL;NULL;13_11_2020_8_21_25
116;13;4;sortStructureCont;query;3;457;red;red,white,pink;300,390,480;270,300,330;49;1;1;euy73pt78rjgn1a;true;166.809;390;195;psychophysics;725634;experimental_data;NULL;NULL;NULL;NULL;13_11_2020_8_21_25
117;26;4;sortStructureCont;bars;6;1847;yellow;red,white,pink,blue,orange,yellow;120,210,300,390,480,570;180,210,240,270,300,330;32;6;6;euy73pt78rjgn1a;true;166.829;390;195;psychophysics;729490;experimental_data;NULL;NULL;NULL;NULL;13_11_2020_8_21_25
117;26;4;sortStructureCont;query;6;1049;yellow;red,white,pink,blue,orange,yellow;120,210,300,390,480,570;180,210,240,270,300,330;54;6;6;euy73pt78rjgn1a;true;166.834;390;195;psychophysics;731546;experimental_data;NULL;NULL;NULL;NULL;13_11_2020_8_21_25
118;12;4;sortStructureCont;bars;3;739;white;red,white,pink;300,390,480;180,210,240;32;2;2;euy73pt78rjgn1a;true;166.819;390;195;psychophysics;734298;experimental_data;NULL;NULL;NULL;NULL;13_11_2020_8_21_25
118;12;4;sortStructureCont;query;3;687;white;red,white,pink;300,390,480;180,210,240;50;2;2;euy73pt78rjgn1a;true;166.826;390;195;psychophysics;735994;experimental_data;NULL;NULL;NULL;NULL;13_11_2020_8_21_25
119;29;4;sortStructureCont;bars;6;2061;green;blue,green,red,white,pink,saddlebrown;120,210,300,390,480,570;150,180,210,240,270,300;32;2;4;euy73pt78rjgn1a;false;166.833;390;195;psychophysics;740066;experimental_data;NULL;NULL;NULL;NULL;13_11_2020_8_21_25
119;29;4;sortStructureCont;query;6;1521;green;blue,green,red,white,pink,saddlebrown;120,210,300,390,480,570;150,180,210,240,270,300;52;2;4;euy73pt78rjgn1a;false;16.683;390;195;psychophysics;742595;experimental_data;NULL;NULL;NULL;NULL;13_11_2020_8_21_25
120;0;4;sortStructureCont;bars;1;604;red;red;390;330;32;1;1;euy73pt78rjgn1a;true;166.828;390;195;psychophysics;745210;experimental_data;NULL;NULL;NULL;NULL;13_11_2020_8_21_25
120;0;4;sortStructureCont;query;1;336;red;red;390;330;49;1;1;euy73pt78rjgn1a;true;166.849;390;195;psychophysics;746554;experimental_data;NULL;NULL;NULL;NULL;13_11_2020_8_21_25
121;30;4;sortStructureCont;bars;7;3350;red;green,yellow,orange,black,red,white,pink;120,210,300,390,480,570,660;150,180,210,240,270,300,330;32;5;3;euy73pt78rjgn1a;false;166.829;390;195;psychophysics;751913;experimental_data;NULL;NULL;NULL;NULL;13_11_2020_8_21_25
121;30;4;sortStructureCont;query;7;857;red;green,yellow,orange,black,red,white,pink;120,210,300,390,480,570,660;150,180,210,240,270,300,330;51;5;3;euy73pt78rjgn1a;false;166.821;390;195;psychophysics;753778;experimental_data;NULL;NULL;NULL;NULL;13_11_2020_8_21_25
122;19;4;sortStructureCont;bars;4;598;red;red,white,pink,purple;210,300,390,480;180,210,240,270;32;1;1;euy73pt78rjgn1a;true;166.829;390;195;psychophysics;756386;experimental_data;NULL;NULL;NULL;NULL;13_11_2020_8_21_25
122;19;4;sortStructureCont;query;4;847;red;red,white,pink,purple;210,300,390,480;180,210,240,270;49;1;1;euy73pt78rjgn1a;true;166.825;390;195;psychophysics;758242;experimental_data;NULL;NULL;NULL;NULL;13_11_2020_8_21_25
123;31;4;sortStructureCont;bars;7;2182;red;purple,blue,red,white,pink,yellow,orange;120,210,300,390,480,570,660;150,180,210,240,270,300,330;32;3;3;euy73pt78rjgn1a;true;166.829;390;195;psychophysics;762434;experimental_data;NULL;NULL;NULL;NULL;13_11_2020_8_21_25
123;31;4;sortStructureCont;query;7;497;red;purple,blue,red,white,pink,yellow,orange;120,210,300,390,480,570,660;150,180,210,240,270,300,330;51;3;3;euy73pt78rjgn1a;true;166.814;390;195;psychophysics;763938;experimental_data;NULL;NULL;NULL;NULL;13_11_2020_8_21_25
124;21;4;sortStructureCont;bars;5;1230;green;green,red,white,pink,saddlebrown;210,300,390,480,570;150,180,210,240,270;32;1;1;euy73pt78rjgn1a;true;166.828;390;195;psychophysics;767177;experimental_data;NULL;NULL;NULL;NULL;13_11_2020_8_21_25
124;21;4;sortStructureCont;query;5;970;green;green,red,white,pink,saddlebrown;210,300,390,480,570;150,180,210,240,270;49;1;1;euy73pt78rjgn1a;true;166.841;390;195;psychophysics;769155;experimental_data;NULL;NULL;NULL;NULL;13_11_2020_8_21_25
125;27;4;sortStructureCont;bars;6;1356;pink;red,white,pink,green,saddlebrown,purple;120,210,300,390,480,570;180,210,240,270,300,330;32;3;3;euy73pt78rjgn1a;true;166.828;390;195;psychophysics;772522;experimental_data;NULL;NULL;NULL;NULL;13_11_2020_8_21_25
125;27;4;sortStructureCont;query;6;798;pink;red,white,pink,green,saddlebrown,purple;120,210,300,390,480,570;180,210,240,270,300,330;51;3;3;euy73pt78rjgn1a;true;166.837;390;195;psychophysics;774330;experimental_data;NULL;NULL;NULL;NULL;13_11_2020_8_21_25
126;28;4;sortStructureCont;bars;6;2005;yellow;blue,yellow,red,white,pink,saddlebrown;120,210,300,390,480,570;180,210,240,270,300,330;32;2;2;euy73pt78rjgn1a;true;166.823;390;195;psychophysics;778346;experimental_data;NULL;NULL;NULL;NULL;13_11_2020_8_21_25
126;28;4;sortStructureCont;query;6;462;yellow;blue,yellow,red,white,pink,saddlebrown;120,210,300,390,480,570;180,210,240,270,300,330;50;2;2;euy73pt78rjgn1a;true;16.682;390;195;psychophysics;779818;experimental_data;NULL;NULL;NULL;NULL;13_11_2020_8_21_25
127;3;4;sortStructureCont;bars;1;478;red;red;390;240;32;1;1;euy73pt78rjgn1a;true;166.822;390;195;psychophysics;782306;experimental_data;NULL;NULL;NULL;NULL;13_11_2020_8_21_25
127;3;4;sortStructureCont;query;1;288;red;red;390;240;49;1;1;euy73pt78rjgn1a;true;166.813;390;195;psychophysics;783602;experimental_data;NULL;NULL;NULL;NULL;13_11_2020_8_21_25
128;9;4;sortStructureCont;bars;2;710;white;red,white;300,39;300,33;32;2;2;euy73pt78rjgn1a;true;166.814;390;195;psychophysics;786322;experimental_data;NULL;NULL;NULL;NULL;13_11_2020_8_21_25
128;9;4;sortStructureCont;query;2;408;white;red,white;300,39;300,33;50;2;2;euy73pt78rjgn1a;true;166.823;390;195;psychophysics;787737;experimental_data;NULL;NULL;NULL;NULL;13_11_2020_8_21_25
129;20;4;sortStructureCont;bars;5;1622;yellow;green,yellow,red,white,pink;210,300,390,480,570;180,210,240,270,300;32;2;2;euy73pt78rjgn1a;true;16.683;390;195;psychophysics;791370;experimental_data;NULL;NULL;NULL;NULL;13_11_2020_8_21_25
129;20;4;sortStructureCont;query;5;742;yellow;green,yellow,red,white,pink;210,300,390,480,570;180,210,240,270,300;50;2;2;euy73pt78rjgn1a;true;166.818;390;195;psychophysics;793121;experimental_data;NULL;NULL;NULL;NULL;13_11_2020_8_21_25
130;18;4;sortStructureCont;bars;4;1099;white;blue,red,white,pink;210,300,390,480;150,180,210,240;32;3;3;euy73pt78rjgn1a;true;166.833;390;195;psychophysics;796233;experimental_data;NULL;NULL;NULL;NULL;13_11_2020_8_21_25
130;18;4;sortStructureCont;query;4;1065;white;blue,red,white,pink;210,300,390,480;150,180,210,240;51;3;3;euy73pt78rjgn1a;true;166.837;390;195;psychophysics;798306;experimental_data;NULL;NULL;NULL;NULL;13_11_2020_8_21_25
131;5;4;sortStructureCont;bars;2;556;red;red,white;300,39;150,18;32;1;1;euy73pt78rjgn1a;true;166.838;390;195;psychophysics;800873;experimental_data;NULL;NULL;NULL;NULL;13_11_2020_8_21_25
131;5;4;sortStructureCont;query;2;424;red;red,white;300,39;150,18;49;1;1;euy73pt78rjgn1a;true;166.821;390;195;psychophysics;802306;experimental_data;NULL;NULL;NULL;NULL;13_11_2020_8_21_25
132;34;4;sortStructureCont;bars;7;2477;orange;yellow,green,red,white,pink,orange,blue;120,210,300,390,480,570,660;150,180,210,240,270,300,330;32;6;6;euy73pt78rjgn1a;true;166.832;390;195;psychophysics;806794;experimental_data;NULL;NULL;NULL;NULL;13_11_2020_8_21_25
132;34;4;sortStructureCont;query;7;952;orange;yellow,green,red,white,pink,orange,blue;120,210,300,390,480,570,660;150,180,210,240,270,300,330;54;6;6;euy73pt78rjgn1a;true;166.824;390;195;psychophysics;808754;experimental_data;NULL;NULL;NULL;NULL;13_11_2020_8_21_25
133;33;4;sortStructureCont;bars;7;2108;white;yellow,saddlebrown,blue,orange,red,white,pink;120,210,300,390,480,570,660;150,180,210,240,270,300,330;32;6;6;euy73pt78rjgn1a;true;16.683;390;195;psychophysics;812874;experimental_data;NULL;NULL;NULL;NULL;13_11_2020_8_21_25
133;33;4;sortStructureCont;query;7;1086;white;yellow,saddlebrown,blue,orange,red,white,pink;120,210,300,390,480,570,660;150,180,210,240,270,300,330;54;6;6;euy73pt78rjgn1a;true;166.819;390;195;psychophysics;814970;experimental_data;NULL;NULL;NULL;NULL;13_11_2020_8_21_25
134;16;4;sortStructureCont;bars;4;1287;pink;red,white,pink,purple;210,300,390,480;240,270,300,330;32;3;3;euy73pt78rjgn1a;true;166.828;390;195;psychophysics;818266;experimental_data;NULL;NULL;NULL;NULL;13_11_2020_8_21_25
134;16;4;sortStructureCont;query;4;1406;pink;red,white,pink,purple;210,300,390,480;240,270,300,330;51;3;3;euy73pt78rjgn1a;true;166.828;390;195;psychophysics;820682;experimental_data;NULL;NULL;NULL;NULL;13_11_2020_8_21_25
135;11;4;sortStructureCont;bars;3;907;red;red,white,pink;300,390,480;240,270,300;32;1;1;euy73pt78rjgn1a;true;166.826;390;195;psychophysics;823602;experimental_data;NULL;NULL;NULL;NULL;13_11_2020_8_21_25
135;11;4;sortStructureCont;query;3;415;red;red,white,pink;300,390,480;240,270,300;49;1;1;euy73pt78rjgn1a;true;166.816;390;195;psychophysics;825026;experimental_data;NULL;NULL;NULL;NULL;13_11_2020_8_21_25
136;7;4;sortStructureCont;bars;2;597;red;red,white;300,39;240,27;32;1;1;euy73pt78rjgn1a;true;166.825;390;195;psychophysics;827633;experimental_data;NULL;NULL;NULL;NULL;13_11_2020_8_21_25
136;7;4;sortStructureCont;query;2;480;red;red,white;300,39;240,27;49;1;1;euy73pt78rjgn1a;true;166.836;390;195;psychophysics;829121;experimental_data;NULL;NULL;NULL;NULL;13_11_2020_8_21_25
137;25;4;sortStructureCont;bars;6;1978;black;red,white,pink,saddlebrown,black,purple;120,210,300,390,480,570;150,180,210,240,270,300;32;5;5;euy73pt78rjgn1a;true;166.828;390;195;psychophysics;833114;experimental_data;NULL;NULL;NULL;NULL;13_11_2020_8_21_25
137;25;4;sortStructureCont;query;6;998;black;red,white,pink,saddlebrown,black,purple;120,210,300,390,480,570;150,180,210,240,270,300;53;5;5;euy73pt78rjgn1a;true;166.833;390;195;psychophysics;835121;experimental_data;NULL;NULL;NULL;NULL;13_11_2020_8_21_25
138;8;4;sortStructureCont;bars;2;645;white;red,white;300,39;300,33;32;2;2;euy73pt78rjgn1a;true;166.882;390;195;psychophysics;837778;experimental_data;NULL;NULL;NULL;NULL;13_11_2020_8_21_25
138;8;4;sortStructureCont;query;2;702;white;red,white;300,39;300,33;50;2;2;euy73pt78rjgn1a;true;166.814;390;195;psychophysics;839490;experimental_data;NULL;NULL;NULL;NULL;13_11_2020_8_21_25
139;32;4;sortStructureCont;bars;7;2644;yellow;yellow,purple,black,red,white,pink,orange;120,210,300,390,480,570,660;150,180,210,240,270,300,330;32;1;6;euy73pt78rjgn1a;false;166.829;390;195;psychophysics;844146;experimental_data;NULL;NULL;NULL;NULL;13_11_2020_8_21_25
139;32;4;sortStructureCont;query;7;1200;yellow;yellow,purple,black,red,white,pink,orange;120,210,300,390,480,570,660;150,180,210,240,270,300,330;54;1;6;euy73pt78rjgn1a;false;166.827;390;195;psychophysics;846354;experimental_data;NULL;NULL;NULL;NULL;13_11_2020_8_21_25
140;6;4;sortStructureCont;bars;2;570;red;red,white;300,39;270,3;32;1;1;euy73pt78rjgn1a;true;166.826;390;195;psychophysics;848938;experimental_data;NULL;NULL;NULL;NULL;13_11_2020_8_21_25
140;6;4;sortStructureCont;query;2;448;red;red,white;300,39;270,3;49;1;1;euy73pt78rjgn1a;true;16.683;390;195;psychophysics;850393;experimental_data;NULL;NULL;NULL;NULL;13_11_2020_8_21_25
NULL;NULL;0;NULL;end_of_block;NULL;4698;NULL;NULL;NULL;NULL;32;NULL;NULL;euy73pt78rjgn1a;NULL;NULL;NULL;NULL;html-keyboard-response;856098;experimental_data;856149;142.691;0.914286;NULL;13_11_2020_8_21_25
141;34;5;noStructureExp;bars;7;3728;black;saddlebrown,purple,yellow,white,red,pink,black;300,120,570,210,390,480,660;150,180,210,240,270,300,330;32;7;5;euy73pt78rjgn1a;false;166.828;390;195;psychophysics;860834;experimental_data;NULL;NULL;NULL;NULL;13_11_2020_8_21_25
141;34;5;noStructureExp;query;7;1224;black;saddlebrown,purple,yellow,white,red,pink,black;300,120,570,210,390,480,660;150,180,210,240,270,300,330;53;7;5;euy73pt78rjgn1a;false;166.823;390;195;psychophysics;863066;experimental_data;NULL;NULL;NULL;NULL;13_11_2020_8_21_25
142;6;5;noStructureExp;bars;2;590;blue;blue,red;390,3;270,3;32;1;1;euy73pt78rjgn1a;true;166.841;390;195;psychophysics;865666;experimental_data;NULL;NULL;NULL;NULL;13_11_2020_8_21_25
142;6;5;noStructureExp;query;2;849;blue;blue,red;390,3;270,3;49;1;1;euy73pt78rjgn1a;true;166.832;390;195;psychophysics;867524;experimental_data;NULL;NULL;NULL;NULL;13_11_2020_8_21_25
143;13;5;noStructureExp;bars;3;1119;saddlebrown;orange,red,saddlebrown;300,480,390;270,300,330;32;3;3;euy73pt78rjgn1a;true;166.824;390;195;psychophysics;870658;experimental_data;NULL;NULL;NULL;NULL;13_11_2020_8_21_25
143;13;5;noStructureExp;query;3;969;saddlebrown;orange,red,saddlebrown;300,480,390;270,300,330;51;3;3;euy73pt78rjgn1a;true;166.831;390;195;psychophysics;872634;experimental_data;NULL;NULL;NULL;NULL;13_11_2020_8_21_25
144;9;5;noStructureExp;bars;2;589;purple;yellow,purple;300,39;300,33;32;2;2;euy73pt78rjgn1a;true;166.841;390;195;psychophysics;875234;experimental_data;NULL;NULL;NULL;NULL;13_11_2020_8_21_25
144;9;5;noStructureExp;query;2;553;purple;yellow,purple;300,39;300,33;50;2;2;euy73pt78rjgn1a;true;166.825;390;195;psychophysics;876794;experimental_data;NULL;NULL;NULL;NULL;13_11_2020_8_21_25
145;18;5;noStructureExp;bars;4;1644;orange;red,blue,green,orange;390,300,480,210;150,180,210,240;32;4;4;euy73pt78rjgn1a;true;166.833;390;195;psychophysics;880450;experimental_data;NULL;NULL;NULL;NULL;13_11_2020_8_21_25
145;18;5;noStructureExp;query;4;808;orange;red,blue,green,orange;390,300,480,210;150,180,210,240;52;4;4;euy73pt78rjgn1a;true;166.819;390;195;psychophysics;882266;experimental_data;NULL;NULL;NULL;NULL;13_11_2020_8_21_25
146;20;5;noStructureExp;bars;5;2603;red;red,black,yellow,white,purple;210,570,480,390,300;180,210,240,270,300;32;1;5;euy73pt78rjgn1a;false;166.832;390;195;psychophysics;886882;experimental_data;NULL;NULL;NULL;NULL;13_11_2020_8_21_25
146;20;5;noStructureExp;query;5;1047;red;red,black,yellow,white,purple;210,570,480,390,300;180,210,240,270,300;53;1;5;euy73pt78rjgn1a;false;16.684;390;195;psychophysics;888938;experimental_data;NULL;NULL;NULL;NULL;13_11_2020_8_21_25
147;8;5;noStructureExp;bars;2;1244;saddlebrown;purple,saddlebrown;300,39;300,33;32;2;2;euy73pt78rjgn1a;true;166.827;390;195;psychophysics;892194;experimental_data;NULL;NULL;NULL;NULL;13_11_2020_8_21_25
147;8;5;noStructureExp;query;2;448;saddlebrown;purple,saddlebrown;300,39;300,33;50;2;2;euy73pt78rjgn1a;true;166.835;390;195;psychophysics;893649;experimental_data;NULL;NULL;NULL;NULL;13_11_2020_8_21_25
148;17;5;noStructureExp;bars;4;2070;saddlebrown;yellow,saddlebrown,white,pink;480,300,210,390;180,210,240,270;32;2;3;euy73pt78rjgn1a;false;166.827;390;195;psychophysics;897731;experimental_data;NULL;NULL;NULL;NULL;13_11_2020_8_21_25
148;17;5;noStructureExp;query;4;1856;saddlebrown;yellow,saddlebrown,white,pink;480,300,210,390;180,210,240,270;51;2;3;euy73pt78rjgn1a;false;16.683;390;195;psychophysics;900594;experimental_data;NULL;NULL;NULL;NULL;13_11_2020_8_21_25
149;4;5;noStructureExp;bars;1;500;blue;blue;390;240;32;1;1;euy73pt78rjgn1a;true;166.816;390;195;psychophysics;903106;experimental_data;NULL;NULL;NULL;NULL;13_11_2020_8_21_25
149;4;5;noStructureExp;query;1;257;blue;blue;390;240;49;1;1;euy73pt78rjgn1a;true;166.825;390;195;psychophysics;904371;experimental_data;NULL;NULL;NULL;NULL;13_11_2020_8_21_25
150;12;5;noStructureExp;bars;3;667;black;black,green,purple;480,390,300;180,210,240;32;1;1;euy73pt78rjgn1a;true;166.826;390;195;psychophysics;907049;experimental_data;NULL;NULL;NULL;NULL;13_11_2020_8_21_25
150;12;5;noStructureExp;query;3;832;black;black,green,purple;480,390,300;180,210,240;49;1;1;euy73pt78rjgn1a;true;166.829;390;195;psychophysics;908890;experimental_data;NULL;NULL;NULL;NULL;13_11_2020_8_21_25
151;7;5;noStructureExp;bars;2;500;red;saddlebrown,red;390,3;240,27;32;2;2;euy73pt78rjgn1a;true;166.829;390;195;psychophysics;911401;experimental_data;NULL;NULL;NULL;NULL;13_11_2020_8_21_25
151;7;5;noStructureExp;query;2;969;red;saddlebrown,red;390,3;240,27;50;2;2;euy73pt78rjgn1a;true;166.823;390;195;psychophysics;913379;experimental_data;NULL;NULL;NULL;NULL;13_11_2020_8_21_25
152;11;5;noStructureExp;bars;3;954;blue;green,black,blue;480,300,390;240,270,300;32;3;3;euy73pt78rjgn1a;true;166.818;390;195;psychophysics;916346;experimental_data;NULL;NULL;NULL;NULL;13_11_2020_8_21_25
152;11;5;noStructureExp;query;3;394;blue;green,black,blue;480,300,390;240,270,300;51;3;3;euy73pt78rjgn1a;true;166.816;390;195;psychophysics;917753;experimental_data;NULL;NULL;NULL;NULL;13_11_2020_8_21_25
153;1;5;noStructureExp;bars;1;429;blue;blue;390;210;32;1;1;euy73pt78rjgn1a;true;166.842;390;195;psychophysics;920193;experimental_data;NULL;NULL;NULL;NULL;13_11_2020_8_21_25
153;1;5;noStructureExp;query;1;256;blue;blue;390;210;49;1;1;euy73pt78rjgn1a;true;166.827;390;195;psychophysics;921457;experimental_data;NULL;NULL;NULL;NULL;13_11_2020_8_21_25
154;32;5;noStructureExp;bars;7;4684;blue;saddlebrown,red,black,pink,orange,white,blue;660,120,300,570,390,480,210;150,180,210,240,270,300,330;32;7;6;euy73pt78rjgn1a;false;166.829;390;195;psychophysics;928154;experimental_data;NULL;NULL;NULL;NULL;13_11_2020_8_21_25
154;32;5;noStructureExp;query;7;1221;blue;saddlebrown,red,black,pink,orange,white,blue;660,120,300,570,390,480,210;150,180,210,240,270,300,330;54;7;6;euy73pt78rjgn1a;false;166.829;390;195;psychophysics;930386;experimental_data;NULL;NULL;NULL;NULL;13_11_2020_8_21_25
155;0;5;noStructureExp;bars;1;470;green;green;390;330;32;1;1;euy73pt78rjgn1a;true;166.828;390;195;psychophysics;932865;experimental_data;NULL;NULL;NULL;NULL;13_11_2020_8_21_25
155;0;5;noStructureExp;query;1;316;green;green;390;330;49;1;1;euy73pt78rjgn1a;true;166.832;390;195;psychophysics;934201;experimental_data;NULL;NULL;NULL;NULL;13_11_2020_8_21_25
156;16;5;noStructureExp;bars;4;1829;green;green,black,pink,red;210,480,390,300;240,270,300,330;32;1;1;euy73pt78rjgn1a;true;166.826;390;195;psychophysics;938041;experimental_data;NULL;NULL;NULL;NULL;13_11_2020_8_21_25
156;16;5;noStructureExp;query;4;1033;green;green,black,pink,red;210,480,390,300;240,270,300,330;49;1;1;euy73pt78rjgn1a;true;166.832;390;195;psychophysics;940082;experimental_data;NULL;NULL;NULL;NULL;13_11_2020_8_21_25
157;19;5;noStructureExp;bars;4;1428;orange;white,orange,blue,red;300,210,480,390;180,210,240,270;32;2;2;euy73pt78rjgn1a;true;166.831;390;195;psychophysics;943522;experimental_data;NULL;NULL;NULL;NULL;13_11_2020_8_21_25
157;19;5;noStructureExp;query;4;463;orange;white,orange,blue,red;300,210,480,390;180,210,240,270;50;2;2;euy73pt78rjgn1a;true;166.829;390;195;psychophysics;944996;experimental_data;NULL;NULL;NULL;NULL;13_11_2020_8_21_25
158;28;5;noStructureExp;bars;6;2632;yellow;yellow,saddlebrown,pink,blue,orange,white;390,210,120,300,480,570;180,210,240,270,300,330;32;1;2;euy73pt78rjgn1a;false;166.832;390;195;psychophysics;949642;experimental_data;NULL;NULL;NULL;NULL;13_11_2020_8_21_25
158;28;5;noStructureExp;query;6;1175;yellow;yellow,saddlebrown,pink,blue,orange,white;390,210,120,300,480,570;180,210,240,270,300,330;50;1;2;euy73pt78rjgn1a;false;166.824;390;195;psychophysics;951826;experimental_data;NULL;NULL;NULL;NULL;13_11_2020_8_21_25
159;23;5;noStructureExp;bars;5;2050;saddlebrown;white,orange,saddlebrown,pink,green;570,390,210,300,480;210,240,270,300,330;32;3;3;euy73pt78rjgn1a;true;166.824;390;195;psychophysics;955889;experimental_data;NULL;NULL;NULL;NULL;13_11_2020_8_21_25
159;23;5;noStructureExp;query;5;920;saddlebrown;white,orange,saddlebrown,pink,green;570,390,210,300,480;210,240,270,300,330;51;3;3;euy73pt78rjgn1a;true;166.832;390;195;psychophysics;957817;experimental_data;NULL;NULL;NULL;NULL;13_11_2020_8_21_25
160;31;5;noStructureExp;bars;7;4316;yellow;pink,saddlebrown,yellow,orange,blue,red,black;120,300,390,210,480,570,660;150,180,210,240,270,300,330;32;3;3;euy73pt78rjgn1a;true;166.828;390;195;psychophysics;964146;experimental_data;NULL;NULL;NULL;NULL;13_11_2020_8_21_25
160;31;5;noStructureExp;query;7;1102;yellow;pink,saddlebrown,yellow,orange,blue,red,black;120,300,390,210,480,570,660;150,180,210,240,270,300,330;51;3;3;euy73pt78rjgn1a;true;166.831;390;195;psychophysics;966257;experimental_data;NULL;NULL;NULL;NULL;13_11_2020_8_21_25
161;10;5;noStructureExp;bars;3;1212;green;green,saddlebrown,orange;480,300,390;270,300,330;32;1;1;euy73pt78rjgn1a;true;166.821;390;195;psychophysics;969482;experimental_data;NULL;NULL;NULL;NULL;13_11_2020_8_21_25
161;10;5;noStructureExp;query;3;784;green;green,saddlebrown,orange;480,300,390;270,300,330;49;1;1;euy73pt78rjgn1a;true;166.831;390;195;psychophysics;971273;experimental_data;NULL;NULL;NULL;NULL;13_11_2020_8_21_25
162;21;5;noStructureExp;bars;5;3135;saddlebrown;saddlebrown,black,red,purple,green;390,480,570,300,210;150,180,210,240,270;32;1;1;euy73pt78rjgn1a;true;166.829;390;195;psychophysics;976418;experimental_data;NULL;NULL;NULL;NULL;13_11_2020_8_21_25
162;21;5;noStructureExp;query;5;558;saddlebrown;saddlebrown,black,red,purple,green;390,480,570,300,210;150,180,210,240,270;49;1;1;euy73pt78rjgn1a;true;166.818;390;195;psychophysics;977985;experimental_data;NULL;NULL;NULL;NULL;13_11_2020_8_21_25
163;22;5;noStructureExp;bars;5;2499;green;purple,blue,green,pink,black;570,390,210,480,300;180,210,240,270,300;32;3;3;euy73pt78rjgn1a;true;166.829;390;195;psychophysics;982497;experimental_data;NULL;NULL;NULL;NULL;13_11_2020_8_21_25
163;22;5;noStructureExp;query;5;1145;green;purple,blue,green,pink,black;570,390,210,480,300;180,210,240,270,300;51;3;3;euy73pt78rjgn1a;true;166.826;390;195;psychophysics;984649;experimental_data;NULL;NULL;NULL;NULL;13_11_2020_8_21_25
164;2;5;noStructureExp;bars;1;679;purple;purple;390;240;32;1;1;euy73pt78rjgn1a;true;166.823;390;195;psychophysics;987338;experimental_data;NULL;NULL;NULL;NULL;13_11_2020_8_21_25
164;2;5;noStructureExp;query;1;320;purple;purple;390;240;49;1;1;euy73pt78rjgn1a;true;166.847;390;195;psychophysics;988665;experimental_data;NULL;NULL;NULL;NULL;13_11_2020_8_21_25
165;14;5;noStructureExp;bars;3;693;black;orange,saddlebrown,black;480,390,300;150,180,210;32;3;3;euy73pt78rjgn1a;true;166.826;390;195;psychophysics;991369;experimental_data;NULL;NULL;NULL;NULL;13_11_2020_8_21_25
165;14;5;noStructureExp;query;3;417;black;orange,saddlebrown,black;480,390,300;150,180,210;51;3;3;euy73pt78rjgn1a;true;166.821;390;195;psychophysics;992793;experimental_data;NULL;NULL;NULL;NULL;13_11_2020_8_21_25
166;30;5;noStructureExp;bars;7;5286;orange;purple,saddlebrown,black,yellow,orange,green,red;120,660,300,390,480,210,570;150,180,210,240,270,300,330;32;5;6;euy73pt78rjgn1a;false;166.827;390;195;psychophysics;1000090;experimental_data;NULL;NULL;NULL;NULL;13_11_2020_8_21_25
166;30;5;noStructureExp;query;7;1374;orange;purple,saddlebrown,black,yellow,orange,green,red;120,660,300,390,480,210,570;150,180,210,240,270,300,330;54;5;6;euy73pt78rjgn1a;false;166.826;390;195;psychophysics;1002473;experimental_data;NULL;NULL;NULL;NULL;13_11_2020_8_21_25
