Trial_index;TrialID;Block;Conditions;Stimulus_type;Number_of_Bars;rt;Query_color;color_sequence;position_sequence;heights;key_press;Correct_Position;response_position;subject_id;correct;avg_frame_time;center_x;center_y;trial_type;time_elapsed;TrialType;timeMs;timeMin;score;reward;date
1;2;1;noStructureExp;bars;3;6870;white;orange,red,white;480,300,390;180,210,240;32;3;5;y7a6denlnqvwcgm;false;166.781;390;195;psychophysics;208635;practice_trials;NULL;NULL;NULL;NULL;11_11_2020_8_47_7
1;2;1;noStructureExp;query;3;4457;white;orange,red,white;480,300,390;180,210,240;53;3;5;y7a6denlnqvwcgm;false;166.781;390;195;psychophysics;214098;practice_trial;NULL;NULL;NULL;NULL;11_11_2020_8_47_7
2;0;1;noStructureExp;bars;1;3062;blue;blue;390;180;32;1;5;y7a6denlnqvwcgm;false;166.782;390;195;psychophysics;219171;practice_trials;NULL;NULL;NULL;NULL;11_11_2020_8_47_7
2;0;1;noStructureExp;query;1;3090;blue;blue;390;180;53;1;5;y7a6denlnqvwcgm;false;16.678;390;195;psychophysics;223266;practice_trial;NULL;NULL;NULL;NULL;11_11_2020_8_47_7
3;5;1;noStructureExp;bars;6;281;orange;orange,saddlebrown,green,white,red,purple;120,300,480,210,390,570;150,180,210,240,270,300;32;1;5;y7a6denlnqvwcgm;false;166.802;390;195;psychophysics;225554;practice_trials;NULL;NULL;NULL;NULL;11_11_2020_8_47_7
3;5;1;noStructureExp;query;6;2098;orange;orange,saddlebrown,green,white,red,purple;120,300,480,210,390,570;150,180,210,240,270,300;53;1;5;y7a6denlnqvwcgm;false;166.779;390;195;psychophysics;228657;practice_trial;NULL;NULL;NULL;NULL;11_11_2020_8_47_7
4;1;1;noStructureExp;bars;2;2216;black;black,red;300,39;150,18;32;1;1;y7a6denlnqvwcgm;true;166.775;390;195;psychophysics;232883;practice_trials;NULL;NULL;NULL;NULL;11_11_2020_8_47_7
4;1;1;noStructureExp;query;2;2266;black;black,red;300,39;150,18;49;1;1;y7a6denlnqvwcgm;true;166.778;390;195;psychophysics;236154;practice_trial;NULL;NULL;NULL;NULL;11_11_2020_8_47_7
5;4;1;noStructureExp;bars;5;15192;white;white,blue,yellow,red,purple;390,570,300,210,480;180,210,240,270,300;32;1;1;y7a6denlnqvwcgm;true;166.781;390;195;psychophysics;253364;practice_trials;NULL;NULL;NULL;NULL;11_11_2020_8_47_7
5;4;1;noStructureExp;query;5;3537;white;white,blue,yellow,red,purple;390,570,300,210,480;180,210,240,270,300;49;1;1;y7a6denlnqvwcgm;true;16.678;390;195;psychophysics;257906;practice_trial;NULL;NULL;NULL;NULL;11_11_2020_8_47_7
6;3;1;noStructureExp;bars;4;7073;white;orange,yellow,red,white;390,480,300,210;150,180,210,240;32;4;5;y7a6denlnqvwcgm;false;16.678;390;195;psychophysics;266987;practice_trials;NULL;NULL;NULL;NULL;11_11_2020_8_47_7
6;3;1;noStructureExp;query;4;2298;white;orange,yellow,red,white;390,480,300,210;150,180,210,240;53;4;5;y7a6denlnqvwcgm;false;166.778;390;195;psychophysics;270290;practice_trial;NULL;NULL;NULL;NULL;11_11_2020_8_47_7
7;6;1;noStructureExp;bars;7;12028;white;red,yellow,saddlebrown,white,purple,blue,orange;120,300,660,570,480,390,210;150,180,210,240,270,300,330;32;4;5;y7a6denlnqvwcgm;false;166.782;390;195;psychophysics;284323;practice_trials;NULL;NULL;NULL;NULL;11_11_2020_8_47_7
7;6;1;noStructureExp;query;7;2377;white;red,yellow,saddlebrown,white,purple,blue,orange;120,300,660,570,480,390,210;150,180,210,240,270,300,330;53;4;5;y7a6denlnqvwcgm;false;166.781;390;195;psychophysics;287706;practice_trial;NULL;NULL;NULL;NULL;11_11_2020_8_47_7
8;4;2;noStructureCont;bars;5;4869;red;red,orange,green,black,saddlebrown;210,300,390,480,570;180,210,240,270,300;32;1;1;y7a6denlnqvwcgm;true;166.782;390;195;psychophysics;308670;practice_trials;NULL;NULL;NULL;NULL;11_11_2020_8_47_7
8;4;2;noStructureCont;query;5;1557;red;red,orange,green,black,saddlebrown;210,300,390,480,570;180,210,240,270,300;49;1;1;y7a6denlnqvwcgm;true;166.777;390;195;psychophysics;311234;practice_trial;NULL;NULL;NULL;NULL;11_11_2020_8_47_7
9;5;2;noStructureCont;bars;6;9482;purple;purple,orange,blue,green,pink,saddlebrown;120,210,300,390,480,570;150,180,210,240,270,300;32;1;1;y7a6denlnqvwcgm;true;16.678;390;195;psychophysics;322723;practice_trials;NULL;NULL;NULL;NULL;11_11_2020_8_47_7
9;5;2;noStructureCont;query;6;1742;purple;purple,orange,blue,green,pink,saddlebrown;120,210,300,390,480,570;150,180,210,240,270,300;49;1;1;y7a6denlnqvwcgm;true;16.678;390;195;psychophysics;325474;practice_trial;NULL;NULL;NULL;NULL;11_11_2020_8_47_7
10;1;2;noStructureCont;bars;2;4435;black;black,saddlebrown;300,39;150,18;32;1;1;y7a6denlnqvwcgm;true;166.781;390;195;psychophysics;331922;practice_trials;NULL;NULL;NULL;NULL;11_11_2020_8_47_7
10;1;2;noStructureCont;query;2;957;black;black,saddlebrown;300,39;150,18;49;1;1;y7a6denlnqvwcgm;true;166.781;390;195;psychophysics;333883;practice_trial;NULL;NULL;NULL;NULL;11_11_2020_8_47_7
11;3;2;noStructureCont;bars;4;4383;blue;white,yellow,red,blue;210,300,390,480;150,180,210,240;32;4;4;y7a6denlnqvwcgm;true;166.783;390;195;psychophysics;340275;practice_trials;NULL;NULL;NULL;NULL;11_11_2020_8_47_7
11;3;2;noStructureCont;query;4;1507;blue;white,yellow,red,blue;210,300,390,480;150,180,210,240;52;4;4;y7a6denlnqvwcgm;true;166.779;390;195;psychophysics;342786;practice_trial;NULL;NULL;NULL;NULL;11_11_2020_8_47_7
12;6;2;noStructureCont;bars;7;12623;purple;blue,red,orange,purple,green,saddlebrown,white;120,210,300,390,480,570,660;150,180,210,240,270,300,330;32;4;3;y7a6denlnqvwcgm;false;166.781;390;195;psychophysics;357419;practice_trials;NULL;NULL;NULL;NULL;11_11_2020_8_47_7
12;6;2;noStructureCont;query;7;2378;purple;blue,red,orange,purple,green,saddlebrown,white;120,210,300,390,480,570,660;150,180,210,240,270,300,330;51;4;3;y7a6denlnqvwcgm;false;166.779;390;195;psychophysics;360802;practice_trial;NULL;NULL;NULL;NULL;11_11_2020_8_47_7
13;2;2;noStructureCont;bars;3;3267;saddlebrown;pink,blue,saddlebrown;300,390,480;180,210,240;32;3;3;y7a6denlnqvwcgm;true;166.781;390;195;psychophysics;366074;practice_trials;NULL;NULL;NULL;NULL;11_11_2020_8_47_7
13;2;2;noStructureCont;query;3;1899;saddlebrown;pink,blue,saddlebrown;300,390,480;180,210,240;51;3;3;y7a6denlnqvwcgm;true;166.782;390;195;psychophysics;368978;practice_trial;NULL;NULL;NULL;NULL;11_11_2020_8_47_7
14;0;2;noStructureCont;bars;1;1614;blue;blue;390;180;32;1;1;y7a6denlnqvwcgm;true;166.779;390;195;psychophysics;372601;practice_trials;NULL;NULL;NULL;NULL;11_11_2020_8_47_7
14;0;2;noStructureCont;query;1;524;blue;blue;390;180;49;1;1;y7a6denlnqvwcgm;true;166.781;390;195;psychophysics;374130;practice_trial;NULL;NULL;NULL;NULL;11_11_2020_8_47_7
NULL;NULL;NULL;NULL;end_of_practice;NULL;4603;NULL;NULL;NULL;NULL;32;NULL;NULL;y7a6denlnqvwcgm;NULL;NULL;NULL;NULL;html-keyboard-response;379739;practice_trials;379747;632.912;0.571429;NULL;11_11_2020_8_47_7
1;4;1;noStructureExp;bars;5;8507;orange;white,orange,blue,green,yellow;300,210,480,390,570;210,240,270,300,330;32;2;2;983wqabxyuty7p2;true;166.668;390;195;psychophysics;403850;practice_trials;NULL;NULL;NULL;NULL;11_11_2020_10_55_4
1;4;1;noStructureExp;query;5;3578;orange;white,orange,blue,green,yellow;300,210,480,390,570;210,240,270,300,330;50;2;2;983wqabxyuty7p2;true;166.668;390;195;psychophysics;408436;practice_trial;NULL;NULL;NULL;NULL;11_11_2020_10_55_4
2;5;1;noStructureExp;bars;6;10895;purple;purple,pink,yellow,black,white,blue;480,300,390,210,570,120;180,210,240,270,300,330;32;1;1;983wqabxyuty7p2;true;166.669;390;195;psychophysics;421347;practice_trials;NULL;NULL;NULL;NULL;11_11_2020_10_55_4
2;5;1;noStructureExp;query;6;3439;purple;purple,pink,yellow,black,white,blue;480,300,390,210,570,120;180,210,240,270,300,330;49;1;1;983wqabxyuty7p2;true;16.667;390;195;psychophysics;425794;practice_trial;NULL;NULL;NULL;NULL;11_11_2020_10_55_4
3;0;1;noStructureExp;bars;1;2410;white;white;390;330;32;1;1;983wqabxyuty7p2;true;166.667;390;195;psychophysics;430218;practice_trials;NULL;NULL;NULL;NULL;11_11_2020_10_55_4
3;0;1;noStructureExp;query;1;2467;white;white;390;330;49;1;1;983wqabxyuty7p2;true;166.672;390;195;psychophysics;433691;practice_trial;NULL;NULL;NULL;NULL;11_11_2020_10_55_4
4;3;1;noStructureExp;bars;4;5462;yellow;green,yellow,white,orange;300,480,210,390;180,210,240,270;32;2;2;983wqabxyuty7p2;true;166.671;390;195;psychophysics;441162;practice_trials;NULL;NULL;NULL;NULL;11_11_2020_10_55_4
4;3;1;noStructureExp;query;4;2937;yellow;green,yellow,white,orange;300,480,210,390;180,210,240,270;50;2;2;983wqabxyuty7p2;true;166.667;390;195;psychophysics;445106;practice_trial;NULL;NULL;NULL;NULL;11_11_2020_10_55_4
5;1;1;noStructureExp;bars;2;3405;red;saddlebrown,red;390,3;240,27;32;2;2;983wqabxyuty7p2;true;166.668;390;195;psychophysics;450523;practice_trials;NULL;NULL;NULL;NULL;11_11_2020_10_55_4
5;1;1;noStructureExp;query;2;2594;red;saddlebrown,red;390,3;240,27;50;2;2;983wqabxyuty7p2;true;166.675;390;195;psychophysics;454123;practice_trial;NULL;NULL;NULL;NULL;11_11_2020_10_55_4
6;2;1;noStructureExp;bars;3;3830;pink;pink,blue,red;300,480,390;240,270,300;32;1;1;983wqabxyuty7p2;true;166.674;390;195;psychophysics;459965;practice_trials;NULL;NULL;NULL;NULL;11_11_2020_10_55_4
6;2;1;noStructureExp;query;3;1054;pink;pink,blue,red;300,480,390;240,270,300;49;1;1;983wqabxyuty7p2;true;166.668;390;195;psychophysics;462027;practice_trial;NULL;NULL;NULL;NULL;11_11_2020_10_55_4
7;6;1;noStructureExp;bars;7;16998;green;black,blue,red,orange,green,pink,yellow;480,570,120,210,390,300,660;150,180,210,240,270,300,330;32;5;4;983wqabxyuty7p2;false;16.667;390;195;psychophysics;481037;practice_trials;NULL;NULL;NULL;NULL;11_11_2020_10_55_4
7;6;1;noStructureExp;query;7;7054;green;black,blue,red,orange,green,pink,yellow;480,570,120,210,390,300,660;150,180,210,240,270,300,330;52;5;4;983wqabxyuty7p2;false;16.667;390;195;psychophysics;489098;practice_trial;NULL;NULL;NULL;NULL;11_11_2020_10_55_4
8;1;2;noStructureCont;bars;2;2129;red;green,red;300,39;240,27;32;2;2;983wqabxyuty7p2;true;166.664;390;195;psychophysics;498666;practice_trials;NULL;NULL;NULL;NULL;11_11_2020_10_55_4
8;1;2;noStructureCont;query;2;1354;red;green,red;300,39;240,27;50;2;2;983wqabxyuty7p2;true;166.667;390;195;psychophysics;501028;practice_trial;NULL;NULL;NULL;NULL;11_11_2020_10_55_4
9;0;2;noStructureCont;bars;1;1019;blue;blue;390;330;32;1;1;983wqabxyuty7p2;true;166.668;390;195;psychophysics;504058;practice_trials;NULL;NULL;NULL;NULL;11_11_2020_10_55_4
9;0;2;noStructureCont;query;1;372;blue;blue;390;330;49;1;1;983wqabxyuty7p2;true;166.682;390;195;psychophysics;505434;practice_trial;NULL;NULL;NULL;NULL;11_11_2020_10_55_4
10;6;2;noStructureCont;bars;7;16063;purple;blue,black,green,yellow,purple,orange,pink;120,210,300,390,480,570,660;150,180,210,240,270,300,330;32;5;5;983wqabxyuty7p2;true;166.669;390;195;psychophysics;523508;practice_trials;NULL;NULL;NULL;NULL;11_11_2020_10_55_4
10;6;2;noStructureCont;query;7;6829;purple;blue,black,green,yellow,purple,orange,pink;120,210,300,390,480,570,660;150,180,210,240,270,300,330;53;5;5;983wqabxyuty7p2;true;166.669;390;195;psychophysics;531348;practice_trial;NULL;NULL;NULL;NULL;11_11_2020_10_55_4
11;3;2;noStructureCont;bars;4;5701;black;saddlebrown,black,yellow,white;210,300,390,480;180,210,240,270;32;2;2;983wqabxyuty7p2;true;166.669;390;195;psychophysics;539060;practice_trials;NULL;NULL;NULL;NULL;11_11_2020_10_55_4
11;3;2;noStructureCont;query;4;2027;black;saddlebrown,black,yellow,white;210,300,390,480;180,210,240,270;50;2;2;983wqabxyuty7p2;true;166.664;390;195;psychophysics;542097;practice_trial;NULL;NULL;NULL;NULL;11_11_2020_10_55_4
12;5;2;noStructureCont;bars;6;8411;blue;blue,white,green,orange,black,saddlebrown;120,210,300,390,480,570;180,210,240,270,300,330;32;1;1;983wqabxyuty7p2;true;166.671;390;195;psychophysics;552517;practice_trials;NULL;NULL;NULL;NULL;11_11_2020_10_55_4
12;5;2;noStructureCont;query;6;1295;blue;blue,white,green,orange,black,saddlebrown;120,210,300,390,480,570;180,210,240,270,300,330;49;1;1;983wqabxyuty7p2;true;166.822;390;195;psychophysics;554818;practice_trial;NULL;NULL;NULL;NULL;11_11_2020_10_55_4
13;4;2;noStructureCont;bars;5;7634;green;orange,green,red,pink,yellow;210,300,390,480,570;210,240,270,300,330;32;2;2;983wqabxyuty7p2;true;166.672;390;195;psychophysics;564461;practice_trials;NULL;NULL;NULL;NULL;11_11_2020_10_55_4
13;4;2;noStructureCont;query;5;1543;green;orange,green,red,pink,yellow;210,300,390,480,570;210,240,270,300,330;50;2;2;983wqabxyuty7p2;true;166.657;390;195;psychophysics;567017;practice_trial;NULL;NULL;NULL;NULL;11_11_2020_10_55_4
14;2;2;noStructureCont;bars;3;2394;blue;blue,black,red;300,390,480;240,270,300;32;1;1;983wqabxyuty7p2;true;166.675;390;195;psychophysics;571419;practice_trials;NULL;NULL;NULL;NULL;11_11_2020_10_55_4
14;2;2;noStructureCont;query;3;1200;blue;blue,black,red;300,390,480;240,270,300;49;1;1;983wqabxyuty7p2;true;166.667;390;195;psychophysics;573626;practice_trial;NULL;NULL;NULL;NULL;11_11_2020_10_55_4
NULL;NULL;NULL;NULL;end_of_practice;NULL;4392;NULL;NULL;NULL;NULL;32;NULL;NULL;983wqabxyuty7p2;NULL;NULL;NULL;NULL;html-keyboard-response;579026;practice_trials;579029;965.048;0.928571;NULL;11_11_2020_10_55_4
1;5;1;noStructureExp;bars;6;8884;blue;blue,saddlebrown,purple,pink,yellow,black;480,390,210,120,570,300;180,210,240,270,300,330;32;1;1;tf2ekjffoeoptr3;true;16.662;390;195;psychophysics;353168;practice_trials;NULL;NULL;NULL;NULL;11_11_2020_22_42_0
1;5;1;noStructureExp;query;6;5050;blue;blue,saddlebrown,purple,pink,yellow,black;480,390,210,120,570,300;180,210,240,270,300,330;49;1;1;tf2ekjffoeoptr3;true;167.169;390;195;psychophysics;359252;practice_trial;NULL;NULL;NULL;NULL;11_11_2020_22_42_0
2;1;1;noStructureExp;bars;2;2961;yellow;yellow,saddlebrown;390,3;210,24;32;1;1;tf2ekjffoeoptr3;true;166.623;390;195;psychophysics;364229;practice_trials;NULL;NULL;NULL;NULL;11_11_2020_22_42_0
2;1;1;noStructureExp;query;2;1865;yellow;yellow,saddlebrown;390,3;210,24;49;1;1;tf2ekjffoeoptr3;true;166.658;390;195;psychophysics;367109;practice_trial;NULL;NULL;NULL;NULL;11_11_2020_22_42_0
3;2;1;noStructureExp;bars;3;4049;saddlebrown;blue,saddlebrown,purple;480,390,300;270,300,330;32;2;2;tf2ekjffoeoptr3;true;166.624;390;195;psychophysics;373182;practice_trials;NULL;NULL;NULL;NULL;11_11_2020_22_42_0
3;2;1;noStructureExp;query;3;2551;saddlebrown;blue,saddlebrown,purple;480,390,300;270,300,330;50;2;2;tf2ekjffoeoptr3;true;166.609;390;195;psychophysics;376741;practice_trial;NULL;NULL;NULL;NULL;11_11_2020_22_42_0
4;0;1;noStructureExp;bars;1;1633;white;white;390;180;32;1;1;tf2ekjffoeoptr3;true;166.628;390;195;psychophysics;380392;practice_trials;NULL;NULL;NULL;NULL;11_11_2020_22_42_0
4;0;1;noStructureExp;query;1;532;white;white;390;180;49;1;1;tf2ekjffoeoptr3;true;166.647;390;195;psychophysics;381951;practice_trial;NULL;NULL;NULL;NULL;11_11_2020_22_42_0
5;4;1;noStructureExp;bars;5;8418;purple;purple,white,blue,saddlebrown,red;570,480,390,300,210;210,240,270,300,330;32;1;1;tf2ekjffoeoptr3;true;16.662;390;195;psychophysics;392437;practice_trials;NULL;NULL;NULL;NULL;11_11_2020_22_42_0
5;4;1;noStructureExp;query;5;3193;purple;purple,white,blue,saddlebrown,red;570,480,390,300,210;210,240,270,300,330;49;1;1;tf2ekjffoeoptr3;true;166.638;390;195;psychophysics;396646;practice_trial;NULL;NULL;NULL;NULL;11_11_2020_22_42_0
6;6;1;noStructureExp;bars;7;15712;white;black,orange,saddlebrown,pink,yellow,white,green;570,480,660,390,210,120,300;150,180,210,240,270,300,330;32;6;3;tf2ekjffoeoptr3;false;166.623;390;195;psychophysics;414383;practice_trials;NULL;NULL;NULL;NULL;11_11_2020_22_42_0
6;6;1;noStructureExp;query;7;2926;white;black,orange,saddlebrown,pink,yellow,white,green;570,480,660,390,210,120,300;150,180,210,240,270,300,330;51;6;3;tf2ekjffoeoptr3;false;166.617;390;195;psychophysics;418324;practice_trial;NULL;NULL;NULL;NULL;11_11_2020_22_42_0
7;3;1;noStructureExp;bars;4;6049;green;purple,pink,green,blue;480,300,210,390;180,210,240,270;32;3;3;tf2ekjffoeoptr3;true;166.624;390;195;psychophysics;426394;practice_trials;NULL;NULL;NULL;NULL;11_11_2020_22_42_0
7;3;1;noStructureExp;query;4;1690;green;purple,pink,green,blue;480,300,210,390;180,210,240,270;51;3;3;tf2ekjffoeoptr3;true;166.622;390;195;psychophysics;429102;practice_trial;NULL;NULL;NULL;NULL;11_11_2020_22_42_0
8;0;2;noStructureCont;bars;1;1161;white;white;390;180;32;1;1;tf2ekjffoeoptr3;true;166.683;390;195;psychophysics;436267;practice_trials;NULL;NULL;NULL;NULL;11_11_2020_22_42_0
8;0;2;noStructureCont;query;1;570;white;white;390;180;49;1;1;tf2ekjffoeoptr3;true;166.738;390;195;psychophysics;437855;practice_trial;NULL;NULL;NULL;NULL;11_11_2020_22_42_0
9;2;2;noStructureCont;bars;3;2978;white;green,white,orange;300,390,480;270,300,330;32;2;2;tf2ekjffoeoptr3;true;166.611;390;195;psychophysics;442845;practice_trials;NULL;NULL;NULL;NULL;11_11_2020_22_42_0
9;2;2;noStructureCont;query;3;1132;white;green,white,orange;300,390,480;270,300,330;50;2;2;tf2ekjffoeoptr3;true;166.657;390;195;psychophysics;444999;practice_trial;NULL;NULL;NULL;NULL;11_11_2020_22_42_0
10;5;2;noStructureCont;bars;6;12844;blue;blue,purple,green,black,orange,red;120,210,300,390,480,570;180,210,240,270,300,330;32;1;1;tf2ekjffoeoptr3;true;166.614;390;195;psychophysics;459858;practice_trials;NULL;NULL;NULL;NULL;11_11_2020_22_42_0
10;5;2;noStructureCont;query;6;924;blue;blue,purple,green,black,orange,red;120,210,300,390,480,570;180,210,240,270,300,330;49;1;1;tf2ekjffoeoptr3;true;166.548;390;195;psychophysics;461791;practice_trial;NULL;NULL;NULL;NULL;11_11_2020_22_42_0
11;3;2;noStructureCont;bars;4;5079;blue;pink,purple,blue,orange;210,300,390,480;180,210,240,270;32;3;3;tf2ekjffoeoptr3;true;166.625;390;195;psychophysics;468886;practice_trials;NULL;NULL;NULL;NULL;11_11_2020_22_42_0
11;3;2;noStructureCont;query;4;1675;blue;pink,purple,blue,orange;210,300,390,480;180,210,240,270;51;3;3;tf2ekjffoeoptr3;true;166.594;390;195;psychophysics;471566;practice_trial;NULL;NULL;NULL;NULL;11_11_2020_22_42_0
12;1;2;noStructureCont;bars;2;3344;white;white,black;300,39;210,24;32;1;1;tf2ekjffoeoptr3;true;166.614;390;195;psychophysics;476926;practice_trials;NULL;NULL;NULL;NULL;11_11_2020_22_42_0
12;1;2;noStructureCont;query;2;792;white;white,black;300,39;210,24;49;1;1;tf2ekjffoeoptr3;true;166.629;390;195;psychophysics;478738;practice_trial;NULL;NULL;NULL;NULL;11_11_2020_22_42_0
13;4;2;noStructureCont;bars;5;7484;black;black,saddlebrown,red,blue,green;210,300,390,480,570;210,240,270,300,330;32;1;1;tf2ekjffoeoptr3;true;166.992;390;195;psychophysics;488245;practice_trials;NULL;NULL;NULL;NULL;11_11_2020_22_42_0
13;4;2;noStructureCont;query;5;5288;black;black,saddlebrown,red,blue,green;210,300,390,480,570;210,240,270,300,330;49;1;1;tf2ekjffoeoptr3;true;166.627;390;195;psychophysics;494550;practice_trial;NULL;NULL;NULL;NULL;11_11_2020_22_42_0
14;6;2;noStructureCont;bars;7;10548;black;pink,red,blue,white,saddlebrown,black,yellow;120,210,300,390,480,570,660;150,180,210,240,270,300,330;32;6;5;tf2ekjffoeoptr3;false;166.622;390;195;psychophysics;507127;practice_trials;NULL;NULL;NULL;NULL;11_11_2020_22_42_0
14;6;2;noStructureCont;query;7;6355;black;pink,red,blue,white,saddlebrown,black,yellow;120,210,300,390,480,570,660;150,180,210,240,270,300,330;53;6;5;tf2ekjffoeoptr3;false;166.626;390;195;psychophysics;514494;practice_trial;NULL;NULL;NULL;NULL;11_11_2020_22_42_0
NULL;NULL;NULL;NULL;end_of_practice;NULL;5103;NULL;NULL;NULL;NULL;32;NULL;NULL;tf2ekjffoeoptr3;NULL;NULL;NULL;NULL;html-keyboard-response;520607;practice_trials;520615;867.692;0.857143;NULL;11_11_2020_22_42_0
1;10;1;noStructureCont;bars;3;5237;green;white,saddlebrown,green;300,390,480;180,210,240;32;3;3;y7a6denlnqvwcgm;true;166.782;390;195;psychophysics;9685;experimental_data;NULL;NULL;NULL;NULL;11_11_2020_8_55_32
1;10;1;noStructureCont;query;3;1499;green;white,saddlebrown,green;300,390,480;180,210,240;51;3;3;y7a6denlnqvwcgm;true;166.783;390;195;psychophysics;12198;experimental_data;NULL;NULL;NULL;NULL;11_11_2020_8_55_32
2;33;1;noStructureCont;bars;7;11822;blue;pink,black,blue,red,orange,purple,white;120,210,300,390,480,570,660;150,180,210,240,270,300,330;32;3;3;y7a6denlnqvwcgm;true;166.781;390;195;psychophysics;26045;experimental_data;NULL;NULL;NULL;NULL;11_11_2020_8_55_32
2;33;1;noStructureCont;query;7;3145;blue;pink,black,blue,red,orange,purple,white;120,210,300,390,480,570,660;150,180,210,240,270,300,330;51;3;3;y7a6denlnqvwcgm;true;166.778;390;195;psychophysics;30197;experimental_data;NULL;NULL;NULL;NULL;11_11_2020_8_55_32
3;4;1;noStructureCont;bars;1;1956;red;red;390;180;32;1;1;y7a6denlnqvwcgm;true;166.782;390;195;psychophysics;34173;experimental_data;NULL;NULL;NULL;NULL;11_11_2020_8_55_32
3;4;1;noStructureCont;query;1;639;red;red;390;180;49;1;1;y7a6denlnqvwcgm;true;166.798;390;195;psychophysics;35821;experimental_data;NULL;NULL;NULL;NULL;11_11_2020_8_55_32
4;32;1;noStructureCont;bars;7;15209;purple;yellow,white,purple,green,saddlebrown,red,black;120,210,300,390,480,570,660;150,180,210,240,270,300,330;32;3;3;y7a6denlnqvwcgm;true;166.781;390;195;psychophysics;53038;experimental_data;NULL;NULL;NULL;NULL;11_11_2020_8_55_32
4;32;1;noStructureCont;query;7;2160;purple;yellow,white,purple,green,saddlebrown,red,black;120,210,300,390,480,570,660;150,180,210,240,270,300,330;51;3;3;y7a6denlnqvwcgm;true;166.781;390;195;psychophysics;56205;experimental_data;NULL;NULL;NULL;NULL;11_11_2020_8_55_32
5;0;1;noStructureCont;bars;1;1415;saddlebrown;saddlebrown;390;150;32;1;1;y7a6denlnqvwcgm;true;166.785;390;195;psychophysics;59629;experimental_data;NULL;NULL;NULL;NULL;11_11_2020_8_55_32
5;0;1;noStructureCont;query;1;721;saddlebrown;saddlebrown;390;150;49;1;1;y7a6denlnqvwcgm;true;166.785;390;195;psychophysics;61357;experimental_data;NULL;NULL;NULL;NULL;11_11_2020_8_55_32
6;15;1;noStructureCont;bars;4;4922;white;black,yellow,white,pink;210,300,390,480;210,240,270,300;32;3;3;y7a6denlnqvwcgm;true;16.678;390;195;psychophysics;68285;experimental_data;NULL;NULL;NULL;NULL;11_11_2020_8_55_32
6;15;1;noStructureCont;query;4;2914;white;black,yellow,white,pink;210,300,390,480;210,240,270,300;51;3;3;y7a6denlnqvwcgm;true;166.779;390;195;psychophysics;72205;experimental_data;NULL;NULL;NULL;NULL;11_11_2020_8_55_32
7;16;1;noStructureCont;bars;4;3608;green;green,black,yellow,orange;210,300,390,480;150,180,210,240;32;1;1;y7a6denlnqvwcgm;true;166.779;390;195;psychophysics;77821;experimental_data;NULL;NULL;NULL;NULL;11_11_2020_8_55_32
7;16;1;noStructureCont;query;4;944;green;green,black,yellow,orange;210,300,390,480;150,180,210,240;49;1;1;y7a6denlnqvwcgm;true;166.778;390;195;psychophysics;79774;experimental_data;NULL;NULL;NULL;NULL;11_11_2020_8_55_32
8;11;1;noStructureCont;bars;3;4759;saddlebrown;pink,orange,saddlebrown;300,390,480;210,240,270;32;3;3;y7a6denlnqvwcgm;true;166.782;390;195;psychophysics;86541;experimental_data;NULL;NULL;NULL;NULL;11_11_2020_8_55_32
8;11;1;noStructureCont;query;3;1530;saddlebrown;pink,orange,saddlebrown;300,390,480;210,240,270;51;3;3;y7a6denlnqvwcgm;true;16.678;390;195;psychophysics;89077;experimental_data;NULL;NULL;NULL;NULL;11_11_2020_8_55_32
9;20;1;noStructureCont;bars;5;4079;white;black,white,yellow,saddlebrown,pink;210,300,390,480,570;180,210,240,270,300;32;2;2;y7a6denlnqvwcgm;true;166.779;390;195;psychophysics;95166;experimental_data;NULL;NULL;NULL;NULL;11_11_2020_8_55_32
9;20;1;noStructureCont;query;5;1712;white;black,white,yellow,saddlebrown,pink;210,300,390,480,570;180,210,240,270,300;50;2;2;y7a6denlnqvwcgm;true;166.781;390;195;psychophysics;97884;experimental_data;NULL;NULL;NULL;NULL;11_11_2020_8_55_32
10;30;1;noStructureCont;bars;7;5696;green;purple,black,blue,pink,green,red,yellow;120,210,300,390,480,570,660;150,180,210,240,270,300,330;32;5;5;y7a6denlnqvwcgm;true;166.781;390;195;psychophysics;105589;experimental_data;NULL;NULL;NULL;NULL;11_11_2020_8_55_32
10;30;1;noStructureCont;query;7;3007;green;purple,black,blue,pink,green,red,yellow;120,210,300,390,480,570,660;150,180,210,240,270,300,330;53;5;5;y7a6denlnqvwcgm;true;166.781;390;195;psychophysics;109604;experimental_data;NULL;NULL;NULL;NULL;11_11_2020_8_55_32
11;24;1;noStructureCont;bars;5;4299;orange;pink,orange,green,blue,red;210,300,390,480,570;180,210,240,270,300;32;2;2;y7a6denlnqvwcgm;true;166.782;390;195;psychophysics;115909;experimental_data;NULL;NULL;NULL;NULL;11_11_2020_8_55_32
11;24;1;noStructureCont;query;5;1017;orange;pink,orange,green,blue,red;210,300,390,480,570;180,210,240,270,300;50;2;2;y7a6denlnqvwcgm;true;166.779;390;195;psychophysics;117932;experimental_data;NULL;NULL;NULL;NULL;11_11_2020_8_55_32
12;31;1;noStructureCont;bars;7;4959;purple;red,yellow,black,purple,pink,orange,green;120,210,300,390,480,570,660;150,180,210,240,270,300,330;32;4;4;y7a6denlnqvwcgm;true;166.781;390;195;psychophysics;124900;experimental_data;NULL;NULL;NULL;NULL;11_11_2020_8_55_32
12;31;1;noStructureCont;query;7;3132;purple;red,yellow,black,purple,pink,orange,green;120,210,300,390,480,570,660;150,180,210,240,270,300,330;52;4;4;y7a6denlnqvwcgm;true;16.678;390;195;psychophysics;129037;experimental_data;NULL;NULL;NULL;NULL;11_11_2020_8_55_32
13;2;1;noStructureCont;bars;1;1207;orange;orange;390;150;32;1;1;y7a6denlnqvwcgm;true;166.783;390;195;psychophysics;132252;experimental_data;NULL;NULL;NULL;NULL;11_11_2020_8_55_32
13;2;1;noStructureCont;query;1;378;orange;orange;390;150;49;1;1;y7a6denlnqvwcgm;true;16.679;390;195;psychophysics;133637;experimental_data;NULL;NULL;NULL;NULL;11_11_2020_8_55_32
14;12;1;noStructureCont;bars;3;2200;purple;purple,saddlebrown,pink;300,390,480;180,210,240;32;1;1;y7a6denlnqvwcgm;true;16.678;390;195;psychophysics;137844;experimental_data;NULL;NULL;NULL;NULL;11_11_2020_8_55_32
14;12;1;noStructureCont;query;3;1537;purple;purple,saddlebrown,pink;300,390,480;180,210,240;49;1;1;y7a6denlnqvwcgm;true;166.784;390;195;psychophysics;140389;experimental_data;NULL;NULL;NULL;NULL;11_11_2020_8_55_32
15;9;1;noStructureCont;bars;2;1858;green;green,black;300,39;210,24;32;1;1;y7a6denlnqvwcgm;true;16.678;390;195;psychophysics;144254;experimental_data;NULL;NULL;NULL;NULL;11_11_2020_8_55_32
15;9;1;noStructureCont;query;2;881;green;green,black;300,39;210,24;49;1;1;y7a6denlnqvwcgm;true;166.783;390;195;psychophysics;146140;experimental_data;NULL;NULL;NULL;NULL;11_11_2020_8_55_32
16;7;1;noStructureCont;bars;2;1152;green;green,yellow;300,39;180,21;32;1;1;y7a6denlnqvwcgm;true;166.781;390;195;psychophysics;149301;experimental_data;NULL;NULL;NULL;NULL;11_11_2020_8_55_32
16;7;1;noStructureCont;query;2;898;green;green,yellow;300,39;180,21;49;1;1;y7a6denlnqvwcgm;true;166.788;390;195;psychophysics;151205;experimental_data;NULL;NULL;NULL;NULL;11_11_2020_8_55_32
17;14;1;noStructureCont;bars;3;1791;saddlebrown;yellow,saddlebrown,blue;300,390,480;240,270,300;32;2;2;y7a6denlnqvwcgm;true;166.785;390;195;psychophysics;155004;experimental_data;NULL;NULL;NULL;NULL;11_11_2020_8_55_32
17;14;1;noStructureCont;query;3;1928;saddlebrown;yellow,saddlebrown,blue;300,390,480;240,270,300;50;2;2;y7a6denlnqvwcgm;true;166.779;390;195;psychophysics;157941;experimental_data;NULL;NULL;NULL;NULL;11_11_2020_8_55_32
18;26;1;noStructureCont;bars;6;5718;black;black,saddlebrown,red,purple,yellow,blue;120,210,300,390,480,570;180,210,240,270,300,330;32;1;1;y7a6denlnqvwcgm;true;16.678;390;195;psychophysics;165669;experimental_data;NULL;NULL;NULL;NULL;11_11_2020_8_55_32
18;26;1;noStructureCont;query;6;777;black;black,saddlebrown,red,purple,yellow,blue;120,210,300,390,480,570;180,210,240,270,300,330;49;1;1;y7a6denlnqvwcgm;true;166.787;390;195;psychophysics;167452;experimental_data;NULL;NULL;NULL;NULL;11_11_2020_8_55_32
19;27;1;noStructureCont;bars;6;6497;blue;blue,saddlebrown,orange,red,yellow,pink;120,210,300,390,480,570;180,210,240,270,300,330;32;1;1;y7a6denlnqvwcgm;true;166.783;390;195;psychophysics;175957;experimental_data;NULL;NULL;NULL;NULL;11_11_2020_8_55_32
19;27;1;noStructureCont;query;6;1291;blue;blue,saddlebrown,orange,red,yellow,pink;120,210,300,390,480,570;180,210,240,270,300,330;49;1;1;y7a6denlnqvwcgm;true;166.788;390;195;psychophysics;178252;experimental_data;NULL;NULL;NULL;NULL;11_11_2020_8_55_32
20;1;1;noStructureCont;bars;1;1011;white;white;390;150;32;1;1;y7a6denlnqvwcgm;true;166.778;390;195;psychophysics;181269;experimental_data;NULL;NULL;NULL;NULL;11_11_2020_8_55_32
20;1;1;noStructureCont;query;1;375;white;white;390;150;49;1;1;y7a6denlnqvwcgm;true;166.786;390;195;psychophysics;182653;experimental_data;NULL;NULL;NULL;NULL;11_11_2020_8_55_32
21;17;1;noStructureCont;bars;4;2362;orange;blue,orange,white,pink;210,300,390,480;210,240,270,300;32;2;2;y7a6denlnqvwcgm;true;166.783;390;195;psychophysics;187022;experimental_data;NULL;NULL;NULL;NULL;11_11_2020_8_55_32
21;17;1;noStructureCont;query;4;1410;orange;blue,orange,white,pink;210,300,390,480;210,240,270,300;50;2;2;y7a6denlnqvwcgm;true;166.784;390;195;psychophysics;189436;experimental_data;NULL;NULL;NULL;NULL;11_11_2020_8_55_32
22;29;1;noStructureCont;bars;6;4000;saddlebrown;yellow,purple,saddlebrown,red,blue,orange;120,210,300,390,480,570;180,210,240,270,300,330;32;3;3;y7a6denlnqvwcgm;true;16.678;390;195;psychophysics;195444;experimental_data;NULL;NULL;NULL;NULL;11_11_2020_8_55_32
22;29;1;noStructureCont;query;6;2693;saddlebrown;yellow,purple,saddlebrown,red,blue,orange;120,210,300,390,480,570;180,210,240,270,300,330;51;3;3;y7a6denlnqvwcgm;true;166.782;390;195;psychophysics;199142;experimental_data;NULL;NULL;NULL;NULL;11_11_2020_8_55_32
23;6;1;noStructureCont;bars;2;1183;green;purple,green;300,39;240,27;32;2;2;y7a6denlnqvwcgm;true;16.679;390;195;psychophysics;202333;experimental_data;NULL;NULL;NULL;NULL;11_11_2020_8_55_32
23;6;1;noStructureCont;query;2;1114;green;purple,green;300,39;240,27;50;2;2;y7a6denlnqvwcgm;true;166.784;390;195;psychophysics;204453;experimental_data;NULL;NULL;NULL;NULL;11_11_2020_8_55_32
24;3;1;noStructureCont;bars;1;977;blue;blue;390;270;32;1;1;y7a6denlnqvwcgm;true;166.788;390;195;psychophysics;207436;experimental_data;NULL;NULL;NULL;NULL;11_11_2020_8_55_32
24;3;1;noStructureCont;query;1;420;blue;blue;390;270;49;1;1;y7a6denlnqvwcgm;true;166.795;390;195;psychophysics;208860;experimental_data;NULL;NULL;NULL;NULL;11_11_2020_8_55_32
25;23;1;noStructureCont;bars;5;4402;purple;yellow,white,saddlebrown,green,purple;210,300,390,480,570;180,210,240,270,300;32;5;5;y7a6denlnqvwcgm;true;166.782;390;195;psychophysics;215269;experimental_data;NULL;NULL;NULL;NULL;11_11_2020_8_55_32
25;23;1;noStructureCont;query;5;3898;purple;yellow,white,saddlebrown,green,purple;210,300,390,480,570;180,210,240,270,300;53;5;5;y7a6denlnqvwcgm;true;166.781;390;195;psychophysics;220173;experimental_data;NULL;NULL;NULL;NULL;11_11_2020_8_55_32
26;25;1;noStructureCont;bars;6;5961;white;white,saddlebrown,yellow,orange,purple,red;120,210,300,390,480,570;150,180,210,240,270,300;32;1;1;y7a6denlnqvwcgm;true;166.781;390;195;psychophysics;228141;experimental_data;NULL;NULL;NULL;NULL;11_11_2020_8_55_32
26;25;1;noStructureCont;query;6;1490;white;white,saddlebrown,yellow,orange,purple,red;120,210,300,390,480,570;150,180,210,240,270,300;49;1;1;y7a6denlnqvwcgm;true;166.783;390;195;psychophysics;230636;experimental_data;NULL;NULL;NULL;NULL;11_11_2020_8_55_32
27;22;1;noStructureCont;bars;5;4378;saddlebrown;black,pink,green,red,saddlebrown;210,300,390,480,570;210,240,270,300,330;32;5;5;y7a6denlnqvwcgm;true;166.781;390;195;psychophysics;237020;experimental_data;NULL;NULL;NULL;NULL;11_11_2020_8_55_32
27;22;1;noStructureCont;query;5;2299;saddlebrown;black,pink,green,red,saddlebrown;210,300,390,480,570;210,240,270,300,330;53;5;5;y7a6denlnqvwcgm;true;166.782;390;195;psychophysics;240325;experimental_data;NULL;NULL;NULL;NULL;11_11_2020_8_55_32
28;21;1;noStructureCont;bars;5;5328;purple;yellow,pink,saddlebrown,orange,purple;210,300,390,480,570;210,240,270,300,330;32;5;5;y7a6denlnqvwcgm;true;166.781;390;195;psychophysics;247660;experimental_data;NULL;NULL;NULL;NULL;11_11_2020_8_55_32
28;21;1;noStructureCont;query;5;3691;purple;yellow,pink,saddlebrown,orange,purple;210,300,390,480,570;210,240,270,300,330;53;5;5;y7a6denlnqvwcgm;true;166.783;390;195;psychophysics;252357;experimental_data;NULL;NULL;NULL;NULL;11_11_2020_8_55_32
29;18;1;noStructureCont;bars;4;2169;saddlebrown;saddlebrown,white,green,purple;210,300,390,480;240,270,300,330;32;1;1;y7a6denlnqvwcgm;true;166.783;390;195;psychophysics;256532;experimental_data;NULL;NULL;NULL;NULL;11_11_2020_8_55_32
29;18;1;noStructureCont;query;4;618;saddlebrown;saddlebrown,white,green,purple;210,300,390,480;240,270,300,330;49;1;1;y7a6denlnqvwcgm;true;166.771;390;195;psychophysics;258156;experimental_data;NULL;NULL;NULL;NULL;11_11_2020_8_55_32
30;8;1;noStructureCont;bars;2;1105;purple;white,purple;300,39;240,27;32;2;2;y7a6denlnqvwcgm;true;166.782;390;195;psychophysics;261268;experimental_data;NULL;NULL;NULL;NULL;11_11_2020_8_55_32
30;8;1;noStructureCont;query;2;899;purple;white,purple;300,39;240,27;50;2;2;y7a6denlnqvwcgm;true;166.775;390;195;psychophysics;263173;experimental_data;NULL;NULL;NULL;NULL;11_11_2020_8_55_32
31;13;1;noStructureCont;bars;3;2126;white;purple,blue,white;300,390,480;270,300,330;32;3;3;y7a6denlnqvwcgm;true;166.777;390;195;psychophysics;267308;experimental_data;NULL;NULL;NULL;NULL;11_11_2020_8_55_32
31;13;1;noStructureCont;query;3;1180;white;purple,blue,white;300,390,480;270,300,330;51;3;3;y7a6denlnqvwcgm;true;166.783;390;195;psychophysics;269492;experimental_data;NULL;NULL;NULL;NULL;11_11_2020_8_55_32
32;5;1;noStructureCont;bars;2;1340;orange;pink,orange;300,39;210,24;32;2;2;y7a6denlnqvwcgm;true;166.781;390;195;psychophysics;272844;experimental_data;NULL;NULL;NULL;NULL;11_11_2020_8_55_32
32;5;1;noStructureCont;query;2;964;orange;pink,orange;300,39;210,24;50;2;2;y7a6denlnqvwcgm;true;166.786;390;195;psychophysics;274813;experimental_data;NULL;NULL;NULL;NULL;11_11_2020_8_55_32
33;34;1;noStructureCont;bars;7;7896;red;blue,white,pink,purple,red,orange,yellow;120,210,300,390,480,570,660;150,180,210,240,270,300,330;32;5;5;y7a6denlnqvwcgm;true;166.781;390;195;psychophysics;284716;experimental_data;NULL;NULL;NULL;NULL;11_11_2020_8_55_32
33;34;1;noStructureCont;query;7;1468;red;blue,white,pink,purple,red,orange,yellow;120,210,300,390,480,570,660;150,180,210,240,270,300,330;53;5;5;y7a6denlnqvwcgm;true;166.773;390;195;psychophysics;287189;experimental_data;NULL;NULL;NULL;NULL;11_11_2020_8_55_32
34;19;1;noStructureCont;bars;4;3024;saddlebrown;purple,black,yellow,saddlebrown;210,300,390,480;210,240,270,300;32;4;4;y7a6denlnqvwcgm;true;166.784;390;195;psychophysics;292220;experimental_data;NULL;NULL;NULL;NULL;11_11_2020_8_55_32
34;19;1;noStructureCont;query;4;2307;saddlebrown;purple,black,yellow,saddlebrown;210,300,390,480;210,240,270,300;52;4;4;y7a6denlnqvwcgm;true;166.781;390;195;psychophysics;295532;experimental_data;NULL;NULL;NULL;NULL;11_11_2020_8_55_32
35;28;1;noStructureCont;bars;6;3698;purple;white,blue,purple,black,pink,orange;120,210,300,390,480,570;150,180,210,240,270,300;32;3;3;y7a6denlnqvwcgm;true;16.678;390;195;psychophysics;301237;experimental_data;NULL;NULL;NULL;NULL;11_11_2020_8_55_32
35;28;1;noStructureCont;query;6;2278;purple;white,blue,purple,black,pink,orange;120,210,300,390,480,570;150,180,210,240,270,300;51;3;3;y7a6denlnqvwcgm;true;166.779;390;195;psychophysics;304524;experimental_data;NULL;NULL;NULL;NULL;11_11_2020_8_55_32
NULL;NULL;0;NULL;end_of_block;NULL;3141;NULL;NULL;NULL;NULL;32;NULL;NULL;y7a6denlnqvwcgm;NULL;NULL;NULL;NULL;html-keyboard-response;308669;experimental_data;308685;514.475;1;NULL;11_11_2020_8_55_32
36;12;2;sortStructureCont;bars;3;2849;blue;blue,purple,red;300,390,480;180,210,240;32;1;1;y7a6denlnqvwcgm;true;166.779;390;195;psychophysics;312524;experimental_data;NULL;NULL;NULL;NULL;11_11_2020_8_55_32
36;12;2;sortStructureCont;query;3;1059;blue;blue,purple,red;300,390,480;180,210,240;49;1;1;y7a6denlnqvwcgm;true;166.775;390;195;psychophysics;314588;experimental_data;NULL;NULL;NULL;NULL;11_11_2020_8_55_32
37;23;2;sortStructureCont;bars;5;2681;purple;blue,purple,red,pink,green;210,300,390,480,570;180,210,240,270,300;32;2;2;y7a6denlnqvwcgm;true;166.782;390;195;psychophysics;319284;experimental_data;NULL;NULL;NULL;NULL;11_11_2020_8_55_32
37;23;2;sortStructureCont;query;5;1970;purple;blue,purple,red,pink,green;210,300,390,480,570;180,210,240,270,300;50;2;2;y7a6denlnqvwcgm;true;166.782;390;195;psychophysics;322260;experimental_data;NULL;NULL;NULL;NULL;11_11_2020_8_55_32
38;19;2;sortStructureCont;bars;4;3668;red;black,blue,purple,red;210,300,390,480;210,240,270,300;32;4;4;y7a6denlnqvwcgm;true;166.783;390;195;psychophysics;327933;experimental_data;NULL;NULL;NULL;NULL;11_11_2020_8_55_32
38;19;2;sortStructureCont;query;4;1825;red;black,blue,purple,red;210,300,390,480;210,240,270,300;52;4;4;y7a6denlnqvwcgm;true;166.784;390;195;psychophysics;330764;experimental_data;NULL;NULL;NULL;NULL;11_11_2020_8_55_32
39;33;2;sortStructureCont;bars;7;4762;blue;saddlebrown,pink,white,black,blue,purple,red;120,210,300,390,480,570,660;150,180,210,240,270,300,330;32;5;5;y7a6denlnqvwcgm;true;166.781;390;195;psychophysics;337532;experimental_data;NULL;NULL;NULL;NULL;11_11_2020_8_55_32
39;33;2;sortStructureCont;query;7;3226;blue;saddlebrown,pink,white,black,blue,purple,red;120,210,300,390,480,570,660;150,180,210,240,270,300,330;53;5;5;y7a6denlnqvwcgm;true;166.779;390;195;psychophysics;341765;experimental_data;NULL;NULL;NULL;NULL;11_11_2020_8_55_32
40;25;2;sortStructureCont;bars;6;4424;blue;green,blue,purple,red,orange,yellow;120,210,300,390,480,570;150,180,210,240,270,300;32;2;2;y7a6denlnqvwcgm;true;166.781;390;195;psychophysics;348196;experimental_data;NULL;NULL;NULL;NULL;11_11_2020_8_55_32
40;25;2;sortStructureCont;query;6;1067;blue;green,blue,purple,red,orange,yellow;120,210,300,390,480,570;150,180,210,240,270,300;50;2;2;y7a6denlnqvwcgm;true;166.783;390;195;psychophysics;350268;experimental_data;NULL;NULL;NULL;NULL;11_11_2020_8_55_32
41;16;2;sortStructureCont;bars;4;4472;green;blue,purple,red,green;210,300,390,480;150,180,210,240;32;4;4;y7a6denlnqvwcgm;true;166.782;390;195;psychophysics;356749;experimental_data;NULL;NULL;NULL;NULL;11_11_2020_8_55_32
41;16;2;sortStructureCont;query;4;1195;green;blue,purple,red,green;210,300,390,480;150,180,210,240;52;4;4;y7a6denlnqvwcgm;true;166.779;390;195;psychophysics;358948;experimental_data;NULL;NULL;NULL;NULL;11_11_2020_8_55_32
42;1;2;sortStructureCont;bars;1;880;blue;blue;390;150;32;1;1;y7a6denlnqvwcgm;true;166.778;390;195;psychophysics;361836;experimental_data;NULL;NULL;NULL;NULL;11_11_2020_8_55_32
42;1;2;sortStructureCont;query;1;523;blue;blue;390;150;49;1;1;y7a6denlnqvwcgm;true;166.803;390;195;psychophysics;363364;experimental_data;NULL;NULL;NULL;NULL;11_11_2020_8_55_32
43;2;2;sortStructureCont;bars;1;834;blue;blue;390;150;32;1;1;y7a6denlnqvwcgm;true;166.789;390;195;psychophysics;366205;experimental_data;NULL;NULL;NULL;NULL;11_11_2020_8_55_32
43;2;2;sortStructureCont;query;1;489;blue;blue;390;150;49;1;1;y7a6denlnqvwcgm;true;16.68;390;195;psychophysics;367701;experimental_data;NULL;NULL;NULL;NULL;11_11_2020_8_55_32
44;5;2;sortStructureCont;bars;2;1071;blue;blue,purple;300,39;210,24;32;1;1;y7a6denlnqvwcgm;true;166.772;390;195;psychophysics;370780;experimental_data;NULL;NULL;NULL;NULL;11_11_2020_8_55_32
44;5;2;sortStructureCont;query;2;635;blue;blue,purple;300,39;210,24;49;1;1;y7a6denlnqvwcgm;true;166.767;390;195;psychophysics;372420;experimental_data;NULL;NULL;NULL;NULL;11_11_2020_8_55_32
45;10;2;sortStructureCont;bars;3;1271;purple;blue,purple,red;300,390,480;180,210,240;32;2;2;y7a6denlnqvwcgm;true;166.777;390;195;psychophysics;375700;experimental_data;NULL;NULL;NULL;NULL;11_11_2020_8_55_32
45;10;2;sortStructureCont;query;3;1723;purple;blue,purple,red;300,390,480;180,210,240;50;2;2;y7a6denlnqvwcgm;true;166.774;390;195;psychophysics;378430;experimental_data;NULL;NULL;NULL;NULL;11_11_2020_8_55_32
46;0;2;sortStructureCont;bars;1;837;blue;blue;390;150;32;1;1;y7a6denlnqvwcgm;true;166.795;390;195;psychophysics;381276;experimental_data;NULL;NULL;NULL;NULL;11_11_2020_8_55_32
46;0;2;sortStructureCont;query;1;415;blue;blue;390;150;49;1;1;y7a6denlnqvwcgm;true;166.787;390;195;psychophysics;382700;experimental_data;NULL;NULL;NULL;NULL;11_11_2020_8_55_32
47;18;2;sortStructureCont;bars;4;2127;purple;white,blue,purple,red;210,300,390,480;240,270,300,330;32;3;3;y7a6denlnqvwcgm;true;166.782;390;195;psychophysics;386836;experimental_data;NULL;NULL;NULL;NULL;11_11_2020_8_55_32
47;18;2;sortStructureCont;query;4;1668;purple;white,blue,purple,red;210,300,390,480;240,270,300,330;51;3;3;y7a6denlnqvwcgm;true;166.776;390;195;psychophysics;389509;experimental_data;NULL;NULL;NULL;NULL;11_11_2020_8_55_32
48;7;2;sortStructureCont;bars;2;927;blue;blue,purple;300,39;180,21;32;1;1;y7a6denlnqvwcgm;true;166.791;390;195;psychophysics;392444;experimental_data;NULL;NULL;NULL;NULL;11_11_2020_8_55_32
48;7;2;sortStructureCont;query;2;738;blue;blue,purple;300,39;180,21;49;1;1;y7a6denlnqvwcgm;true;166.785;390;195;psychophysics;394188;experimental_data;NULL;NULL;NULL;NULL;11_11_2020_8_55_32
49;20;2;sortStructureCont;bars;5;4218;blue;pink,blue,purple,red,green;210,300,390,480,570;180,210,240,270,300;32;2;2;y7a6denlnqvwcgm;true;166.782;390;195;psychophysics;400413;experimental_data;NULL;NULL;NULL;NULL;11_11_2020_8_55_32
49;20;2;sortStructureCont;query;5;1498;blue;pink,blue,purple,red,green;210,300,390,480,570;180,210,240,270,300;50;2;2;y7a6denlnqvwcgm;true;166.779;390;195;psychophysics;402916;experimental_data;NULL;NULL;NULL;NULL;11_11_2020_8_55_32
50;29;2;sortStructureCont;bars;6;4111;white;saddlebrown,blue,purple,red,white,pink;120,210,300,390,480,570;180,210,240,270,300,330;32;5;5;y7a6denlnqvwcgm;true;16.678;390;195;psychophysics;409037;experimental_data;NULL;NULL;NULL;NULL;11_11_2020_8_55_32
50;29;2;sortStructureCont;query;6;1619;white;saddlebrown,blue,purple,red,white,pink;120,210,300,390,480,570;180,210,240,270,300,330;53;5;5;y7a6denlnqvwcgm;true;16.678;390;195;psychophysics;411660;experimental_data;NULL;NULL;NULL;NULL;11_11_2020_8_55_32
51;17;2;sortStructureCont;bars;4;3088;blue;blue,purple,red,white;210,300,390,480;210,240,270,300;32;1;1;y7a6denlnqvwcgm;true;166.781;390;195;psychophysics;416756;experimental_data;NULL;NULL;NULL;NULL;11_11_2020_8_55_32
51;17;2;sortStructureCont;query;4;1225;blue;blue,purple,red,white;210,300,390,480;210,240,270,300;49;1;1;y7a6denlnqvwcgm;true;166.772;390;195;psychophysics;418988;experimental_data;NULL;NULL;NULL;NULL;11_11_2020_8_55_32
52;28;2;sortStructureCont;bars;6;4243;green;yellow,green,orange,blue,purple,red;120,210,300,390,480,570;150,180,210,240,270,300;32;2;2;y7a6denlnqvwcgm;true;166.782;390;195;psychophysics;425236;experimental_data;NULL;NULL;NULL;NULL;11_11_2020_8_55_32
52;28;2;sortStructureCont;query;6;1315;green;yellow,green,orange,blue,purple,red;120,210,300,390,480,570;150,180,210,240,270,300;50;2;2;y7a6denlnqvwcgm;true;16.678;390;195;psychophysics;427556;experimental_data;NULL;NULL;NULL;NULL;11_11_2020_8_55_32
53;6;2;sortStructureCont;bars;2;976;blue;blue,purple;300,39;240,27;32;1;1;y7a6denlnqvwcgm;true;166.783;390;195;psychophysics;430540;experimental_data;NULL;NULL;NULL;NULL;11_11_2020_8_55_32
53;6;2;sortStructureCont;query;2;677;blue;blue,purple;300,39;240,27;49;1;1;y7a6denlnqvwcgm;true;166.775;390;195;psychophysics;432220;experimental_data;NULL;NULL;NULL;NULL;11_11_2020_8_55_32
54;3;2;sortStructureCont;bars;1;924;blue;blue;390;270;32;1;1;y7a6denlnqvwcgm;true;166.785;390;195;psychophysics;435156;experimental_data;NULL;NULL;NULL;NULL;11_11_2020_8_55_32
54;3;2;sortStructureCont;query;1;427;blue;blue;390;270;49;1;1;y7a6denlnqvwcgm;true;16.677;390;195;psychophysics;436588;experimental_data;NULL;NULL;NULL;NULL;11_11_2020_8_55_32
55;11;2;sortStructureCont;bars;3;1264;blue;blue,purple,red;300,390,480;210,240,270;32;1;1;y7a6denlnqvwcgm;true;166.784;390;195;psychophysics;439860;experimental_data;NULL;NULL;NULL;NULL;11_11_2020_8_55_32
55;11;2;sortStructureCont;query;3;1067;blue;blue,purple,red;300,390,480;210,240,270;49;1;1;y7a6denlnqvwcgm;true;166.784;390;195;psychophysics;441932;experimental_data;NULL;NULL;NULL;NULL;11_11_2020_8_55_32
56;21;2;sortStructureCont;bars;5;5349;yellow;green,yellow,blue,purple,red;210,300,390,480,570;210,240,270,300,330;32;2;2;y7a6denlnqvwcgm;true;166.778;390;195;psychophysics;449292;experimental_data;NULL;NULL;NULL;NULL;11_11_2020_8_55_32
56;21;2;sortStructureCont;query;5;1307;yellow;green,yellow,blue,purple,red;210,300,390,480,570;210,240,270,300,330;50;2;2;y7a6denlnqvwcgm;true;166.781;390;195;psychophysics;451604;experimental_data;NULL;NULL;NULL;NULL;11_11_2020_8_55_32
57;34;2;sortStructureCont;bars;7;3818;purple;orange,saddlebrown,blue,purple,red,yellow,green;120,210,300,390,480,570,660;150,180,210,240,270,300,330;32;4;4;y7a6denlnqvwcgm;true;166.783;390;195;psychophysics;457428;experimental_data;NULL;NULL;NULL;NULL;11_11_2020_8_55_32
57;34;2;sortStructureCont;query;7;2373;purple;orange,saddlebrown,blue,purple,red,yellow,green;120,210,300,390,480,570,660;150,180,210,240,270,300,330;52;4;4;y7a6denlnqvwcgm;true;16.678;390;195;psychophysics;460805;experimental_data;NULL;NULL;NULL;NULL;11_11_2020_8_55_32
58;9;2;sortStructureCont;bars;2;1329;purple;blue,purple;300,39;210,24;32;2;2;y7a6denlnqvwcgm;true;166.776;390;195;psychophysics;464140;experimental_data;NULL;NULL;NULL;NULL;11_11_2020_8_55_32
58;9;2;sortStructureCont;query;2;1059;purple;blue,purple;300,39;210,24;50;2;2;y7a6denlnqvwcgm;true;16.678;390;195;psychophysics;466204;experimental_data;NULL;NULL;NULL;NULL;11_11_2020_8_55_32
59;27;2;sortStructureCont;bars;6;5090;pink;blue,purple,red,orange,yellow,pink;120,210,300,390,480,570;180,210,240,270,300,330;32;6;6;y7a6denlnqvwcgm;true;166.782;390;195;psychophysics;473301;experimental_data;NULL;NULL;NULL;NULL;11_11_2020_8_55_32
59;27;2;sortStructureCont;query;6;5338;pink;blue,purple,red,orange,yellow,pink;120,210,300,390,480,570;180,210,240,270,300,330;54;6;6;y7a6denlnqvwcgm;true;166.782;390;195;psychophysics;479644;experimental_data;NULL;NULL;NULL;NULL;11_11_2020_8_55_32
60;31;2;sortStructureCont;bars;7;7872;orange;green,yellow,blue,purple,red,saddlebrown,orange;120,210,300,390,480,570,660;150,180,210,240,270,300,330;32;7;7;y7a6denlnqvwcgm;true;166.781;390;195;psychophysics;489524;experimental_data;NULL;NULL;NULL;NULL;11_11_2020_8_55_32
60;31;2;sortStructureCont;query;7;1907;orange;green,yellow,blue,purple,red,saddlebrown,orange;120,210,300,390,480,570,660;150,180,210,240,270,300,330;55;7;7;y7a6denlnqvwcgm;true;166.781;390;195;psychophysics;492436;experimental_data;NULL;NULL;NULL;NULL;11_11_2020_8_55_32
61;13;2;sortStructureCont;bars;3;1595;purple;blue,purple,red;300,390,480;270,300,330;32;2;2;y7a6denlnqvwcgm;true;166.779;390;195;psychophysics;496036;experimental_data;NULL;NULL;NULL;NULL;11_11_2020_8_55_32
61;13;2;sortStructureCont;query;3;1418;purple;blue,purple,red;300,390,480;270,300,330;50;2;2;y7a6denlnqvwcgm;true;166.782;390;195;psychophysics;498460;experimental_data;NULL;NULL;NULL;NULL;11_11_2020_8_55_32
62;4;2;sortStructureCont;bars;1;906;blue;blue;390;180;32;1;1;y7a6denlnqvwcgm;true;166.782;390;195;psychophysics;501373;experimental_data;NULL;NULL;NULL;NULL;11_11_2020_8_55_32
62;4;2;sortStructureCont;query;1;465;blue;blue;390;180;49;1;1;y7a6denlnqvwcgm;true;16.678;390;195;psychophysics;502844;experimental_data;NULL;NULL;NULL;NULL;11_11_2020_8_55_32
63;24;2;sortStructureCont;bars;5;3686;blue;orange,yellow,blue,purple,red;210,300,390,480,570;180,210,240,270,300;32;3;3;y7a6denlnqvwcgm;true;166.782;390;195;psychophysics;508540;experimental_data;NULL;NULL;NULL;NULL;11_11_2020_8_55_32
63;24;2;sortStructureCont;query;5;1732;blue;orange,yellow,blue,purple,red;210,300,390,480,570;180,210,240,270,300;51;3;3;y7a6denlnqvwcgm;true;166.776;390;195;psychophysics;511276;experimental_data;NULL;NULL;NULL;NULL;11_11_2020_8_55_32
64;30;2;sortStructureCont;bars;7;7350;purple;black,blue,purple,red,saddlebrown,white,green;120,210,300,390,480,570,660;150,180,210,240,270,300,330;32;3;4;y7a6denlnqvwcgm;false;166.782;390;195;psychophysics;520637;experimental_data;NULL;NULL;NULL;NULL;11_11_2020_8_55_32
64;30;2;sortStructureCont;query;7;2899;purple;black,blue,purple,red,saddlebrown,white,green;120,210,300,390,480,570,660;150,180,210,240,270,300,330;52;3;4;y7a6denlnqvwcgm;false;166.781;390;195;psychophysics;524547;experimental_data;NULL;NULL;NULL;NULL;11_11_2020_8_55_32
65;22;2;sortStructureCont;bars;5;5391;blue;blue,purple,red,pink,yellow;210,300,390,480,570;210,240,270,300,330;32;1;1;y7a6denlnqvwcgm;true;166.781;390;195;psychophysics;531948;experimental_data;NULL;NULL;NULL;NULL;11_11_2020_8_55_32
65;22;2;sortStructureCont;query;5;930;blue;blue,purple,red,pink,yellow;210,300,390,480,570;210,240,270,300,330;49;1;1;y7a6denlnqvwcgm;true;166.779;390;195;psychophysics;533883;experimental_data;NULL;NULL;NULL;NULL;11_11_2020_8_55_32
66;26;2;sortStructureCont;bars;6;5985;pink;orange,white,blue,purple,red,pink;120,210,300,390,480,570;180,210,240,270,300,330;32;6;6;y7a6denlnqvwcgm;true;166.781;390;195;psychophysics;541876;experimental_data;NULL;NULL;NULL;NULL;11_11_2020_8_55_32
66;26;2;sortStructureCont;query;6;3985;pink;orange,white,blue,purple,red,pink;120,210,300,390,480,570;180,210,240,270,300,330;54;6;6;y7a6denlnqvwcgm;true;16.678;390;195;psychophysics;546868;experimental_data;NULL;NULL;NULL;NULL;11_11_2020_8_55_32
67;14;2;sortStructureCont;bars;3;1797;blue;blue,purple,red;300,390,480;240,270,300;32;1;1;y7a6denlnqvwcgm;true;166.779;390;195;psychophysics;550683;experimental_data;NULL;NULL;NULL;NULL;11_11_2020_8_55_32
67;14;2;sortStructureCont;query;3;1147;blue;blue,purple,red;300,390,480;240,270,300;49;1;1;y7a6denlnqvwcgm;true;166.788;390;195;psychophysics;552835;experimental_data;NULL;NULL;NULL;NULL;11_11_2020_8_55_32
68;8;2;sortStructureCont;bars;2;719;purple;blue,purple;300,39;240,27;32;2;2;y7a6denlnqvwcgm;true;166.785;390;195;psychophysics;555563;experimental_data;NULL;NULL;NULL;NULL;11_11_2020_8_55_32
68;8;2;sortStructureCont;query;2;897;purple;blue,purple;300,39;240,27;50;2;2;y7a6denlnqvwcgm;true;166.785;390;195;psychophysics;557469;experimental_data;NULL;NULL;NULL;NULL;11_11_2020_8_55_32
69;32;2;sortStructureCont;bars;7;8802;purple;orange,saddlebrown,blue,purple,red,white,yellow;120,210,300,390,480,570,660;150,180,210,240,270,300,330;32;4;4;y7a6denlnqvwcgm;true;166.782;390;195;psychophysics;568277;experimental_data;NULL;NULL;NULL;NULL;11_11_2020_8_55_32
69;32;2;sortStructureCont;query;7;2497;purple;orange,saddlebrown,blue,purple,red,white,yellow;120,210,300,390,480,570,660;150,180,210,240,270,300,330;52;4;4;y7a6denlnqvwcgm;true;166.783;390;195;psychophysics;571780;experimental_data;NULL;NULL;NULL;NULL;11_11_2020_8_55_32
70;15;2;sortStructureCont;bars;4;2639;blue;pink,blue,purple,red;210,300,390,480;210,240,270,300;32;2;2;y7a6denlnqvwcgm;true;166.782;390;195;psychophysics;576428;experimental_data;NULL;NULL;NULL;NULL;11_11_2020_8_55_32
70;15;2;sortStructureCont;query;4;1490;blue;pink,blue,purple,red;210,300,390,480;210,240,270,300;50;2;2;y7a6denlnqvwcgm;true;166.781;390;195;psychophysics;578924;experimental_data;NULL;NULL;NULL;NULL;11_11_2020_8_55_32
NULL;NULL;0;NULL;end_of_block;NULL;2738;NULL;NULL;NULL;NULL;32;NULL;NULL;y7a6denlnqvwcgm;NULL;NULL;NULL;NULL;html-keyboard-response;582668;experimental_data;582683;971.138;0.971429;NULL;11_11_2020_8_55_32
71;14;3;sortStructureExp;bars;3;2802;pink;pink,blue,white;300,480,390;240,270,300;32;1;1;y7a6denlnqvwcgm;true;16.678;390;195;psychophysics;586476;experimental_data;NULL;NULL;NULL;NULL;11_11_2020_8_55_32
71;14;3;sortStructureExp;query;3;929;pink;pink,blue,white;300,480,390;240,270,300;49;1;1;y7a6denlnqvwcgm;true;166.787;390;195;psychophysics;588412;experimental_data;NULL;NULL;NULL;NULL;11_11_2020_8_55_32
72;26;3;sortStructureExp;bars;6;9291;saddlebrown;pink,blue,white,green,purple,saddlebrown;300,210,120,480,570,390;180,210,240,270,300,330;32;6;6;y7a6denlnqvwcgm;true;16.678;390;195;psychophysics;599716;experimental_data;NULL;NULL;NULL;NULL;11_11_2020_8_55_32
72;26;3;sortStructureExp;query;6;4034;saddlebrown;pink,blue,white,green,purple,saddlebrown;300,210,120,480,570,390;180,210,240,270,300,330;54;6;6;y7a6denlnqvwcgm;true;166.779;390;195;psychophysics;604755;experimental_data;NULL;NULL;NULL;NULL;11_11_2020_8_55_32
73;32;3;sortStructureExp;bars;7;10747;yellow;orange,red,black,yellow,pink,blue,white;660,300,390,120,570,210,480;150,180,210,240,270,300,330;32;4;7;y7a6denlnqvwcgm;false;166.781;390;195;psychophysics;617509;experimental_data;NULL;NULL;NULL;NULL;11_11_2020_8_55_32
73;32;3;sortStructureExp;query;7;4121;yellow;orange,red,black,yellow,pink,blue,white;660,300,390,120,570,210,480;150,180,210,240,270,300,330;55;4;7;y7a6denlnqvwcgm;false;166.779;390;195;psychophysics;622636;experimental_data;NULL;NULL;NULL;NULL;11_11_2020_8_55_32
74;19;3;sortStructureExp;bars;4;4200;white;green,pink,blue,white;480,210,300,390;210,240,270,300;32;4;4;y7a6denlnqvwcgm;true;166.782;390;195;psychophysics;628845;experimental_data;NULL;NULL;NULL;NULL;11_11_2020_8_55_32
74;19;3;sortStructureExp;query;4;3284;white;green,pink,blue,white;480,210,300,390;210,240,270,300;52;4;4;y7a6denlnqvwcgm;true;166.778;390;195;psychophysics;633140;experimental_data;NULL;NULL;NULL;NULL;11_11_2020_8_55_32
75;2;3;sortStructureExp;bars;1;1424;pink;pink;390;150;32;1;1;y7a6denlnqvwcgm;true;166.781;390;195;psychophysics;636572;experimental_data;NULL;NULL;NULL;NULL;11_11_2020_8_55_32
75;2;3;sortStructureExp;query;1;515;pink;pink;390;150;49;1;1;y7a6denlnqvwcgm;true;166.785;390;195;psychophysics;638092;experimental_data;NULL;NULL;NULL;NULL;11_11_2020_8_55_32
76;23;3;sortStructureExp;bars;5;4522;pink;yellow,pink,blue,white,saddlebrown;390,480,570,300,210;180,210,240,270,300;32;2;2;y7a6denlnqvwcgm;true;166.783;390;195;psychophysics;644621;experimental_data;NULL;NULL;NULL;NULL;11_11_2020_8_55_32
76;23;3;sortStructureExp;query;5;1465;pink;yellow,pink,blue,white,saddlebrown;390,480,570,300,210;180,210,240,270,300;50;2;2;y7a6denlnqvwcgm;true;166.776;390;195;psychophysics;647092;experimental_data;NULL;NULL;NULL;NULL;11_11_2020_8_55_32
77;3;3;sortStructureExp;bars;1;942;pink;pink;390;270;32;1;1;y7a6denlnqvwcgm;true;166.772;390;195;psychophysics;650044;experimental_data;NULL;NULL;NULL;NULL;11_11_2020_8_55_32
77;3;3;sortStructureExp;query;1;496;pink;pink;390;270;49;1;1;y7a6denlnqvwcgm;true;16.679;390;195;psychophysics;651548;experimental_data;NULL;NULL;NULL;NULL;11_11_2020_8_55_32
78;18;3;sortStructureExp;bars;4;2482;blue;purple,pink,blue,white;390,210,300,480;240,270,300,330;32;3;3;y7a6denlnqvwcgm;true;16.678;390;195;psychophysics;656038;experimental_data;NULL;NULL;NULL;NULL;11_11_2020_8_55_32
78;18;3;sortStructureExp;query;4;2152;blue;purple,pink,blue,white;390,210,300,480;240,270,300,330;51;3;3;y7a6denlnqvwcgm;true;166.782;390;195;psychophysics;659197;experimental_data;NULL;NULL;NULL;NULL;11_11_2020_8_55_32
79;1;3;sortStructureExp;bars;1;943;pink;pink;390;150;32;1;1;y7a6denlnqvwcgm;true;166.788;390;195;psychophysics;662148;experimental_data;NULL;NULL;NULL;NULL;11_11_2020_8_55_32
79;1;3;sortStructureExp;query;1;482;pink;pink;390;150;49;1;1;y7a6denlnqvwcgm;true;166.786;390;195;psychophysics;663636;experimental_data;NULL;NULL;NULL;NULL;11_11_2020_8_55_32
80;28;3;sortStructureExp;bars;6;7254;black;orange,black,purple,pink,blue,white;390,120,210,480,570,300;150,180,210,240,270,300;32;2;2;y7a6denlnqvwcgm;true;166.781;390;195;psychophysics;672901;experimental_data;NULL;NULL;NULL;NULL;11_11_2020_8_55_32
80;28;3;sortStructureExp;query;6;1618;black;orange,black,purple,pink,blue,white;390,120,210,480,570,300;150,180,210,240,270,300;50;2;2;y7a6denlnqvwcgm;true;166.784;390;195;psychophysics;675524;experimental_data;NULL;NULL;NULL;NULL;11_11_2020_8_55_32
81;31;3;sortStructureExp;bars;7;6064;orange;pink,blue,white,saddlebrown,purple,green,orange;210,570,660,300,120,390,480;150,180,210,240,270,300,330;32;7;7;y7a6denlnqvwcgm;true;166.782;390;195;psychophysics;683596;experimental_data;NULL;NULL;NULL;NULL;11_11_2020_8_55_32
81;31;3;sortStructureExp;query;7;3490;orange;pink,blue,white,saddlebrown,purple,green,orange;210,570,660,300,120,390,480;150,180,210,240,270,300,330;55;7;7;y7a6denlnqvwcgm;true;166.781;390;195;psychophysics;688093;experimental_data;NULL;NULL;NULL;NULL;11_11_2020_8_55_32
82;13;3;sortStructureExp;bars;3;2176;blue;pink,blue,white;390,300,480;270,300,330;32;2;2;y7a6denlnqvwcgm;true;166.781;390;195;psychophysics;692283;experimental_data;NULL;NULL;NULL;NULL;11_11_2020_8_55_32
82;13;3;sortStructureExp;query;3;1309;blue;pink,blue,white;390,300,480;270,300,330;50;2;2;y7a6denlnqvwcgm;true;16.678;390;195;psychophysics;694597;experimental_data;NULL;NULL;NULL;NULL;11_11_2020_8_55_32
83;5;3;sortStructureExp;bars;2;1206;pink;pink,blue;300,39;210,24;32;1;1;y7a6denlnqvwcgm;true;166.783;390;195;psychophysics;697811;experimental_data;NULL;NULL;NULL;NULL;11_11_2020_8_55_32
83;5;3;sortStructureExp;query;2;1034;pink;pink,blue;300,39;210,24;49;1;1;y7a6denlnqvwcgm;true;166.779;390;195;psychophysics;699851;experimental_data;NULL;NULL;NULL;NULL;11_11_2020_8_55_32
84;25;3;sortStructureExp;bars;6;7115;orange;saddlebrown,orange,red,pink,blue,white;390,300,570,120,480,210;150,180,210,240,270,300;32;2;2;y7a6denlnqvwcgm;true;166.782;390;195;psychophysics;708980;experimental_data;NULL;NULL;NULL;NULL;11_11_2020_8_55_32
84;25;3;sortStructureExp;query;6;1308;orange;saddlebrown,orange,red,pink,blue,white;390,300,570,120,480,210;150,180,210,240,270,300;50;2;2;y7a6denlnqvwcgm;true;166.784;390;195;psychophysics;711292;experimental_data;NULL;NULL;NULL;NULL;11_11_2020_8_55_32
85;4;3;sortStructureExp;bars;1;969;pink;pink;390;180;32;1;1;y7a6denlnqvwcgm;true;166.781;390;195;psychophysics;714267;experimental_data;NULL;NULL;NULL;NULL;11_11_2020_8_55_32
85;4;3;sortStructureExp;query;1;396;pink;pink;390;180;49;1;1;y7a6denlnqvwcgm;true;16.677;390;195;psychophysics;715668;experimental_data;NULL;NULL;NULL;NULL;11_11_2020_8_55_32
86;22;3;sortStructureExp;bars;5;3807;orange;orange,green,pink,blue,white;480,570,390,300,210;210,240,270,300,330;32;1;1;y7a6denlnqvwcgm;true;166.782;390;195;psychophysics;721484;experimental_data;NULL;NULL;NULL;NULL;11_11_2020_8_55_32
86;22;3;sortStructureExp;query;5;1074;orange;orange,green,pink,blue,white;480,570,390,300,210;210,240,270,300,330;49;1;1;y7a6denlnqvwcgm;true;166.789;390;195;psychophysics;723563;experimental_data;NULL;NULL;NULL;NULL;11_11_2020_8_55_32
87;11;3;sortStructureExp;bars;3;2329;pink;pink,blue,white;480,300,390;210,240,270;32;1;1;y7a6denlnqvwcgm;true;166.779;390;195;psychophysics;727899;experimental_data;NULL;NULL;NULL;NULL;11_11_2020_8_55_32
87;11;3;sortStructureExp;query;3;770;pink;pink,blue,white;480,300,390;210,240,270;49;1;1;y7a6denlnqvwcgm;true;166.785;390;195;psychophysics;729675;experimental_data;NULL;NULL;NULL;NULL;11_11_2020_8_55_32
88;17;3;sortStructureExp;bars;4;2931;pink;pink,blue,white,purple;480,390,210,300;210,240,270,300;32;1;1;y7a6denlnqvwcgm;true;16.678;390;195;psychophysics;734613;experimental_data;NULL;NULL;NULL;NULL;11_11_2020_8_55_32
88;17;3;sortStructureExp;query;4;1473;pink;pink,blue,white,purple;480,390,210,300;210,240,270,300;49;1;1;y7a6denlnqvwcgm;true;166.774;390;195;psychophysics;737092;experimental_data;NULL;NULL;NULL;NULL;11_11_2020_8_55_32
89;7;3;sortStructureExp;bars;2;880;pink;pink,blue;300,39;180,21;32;1;1;y7a6denlnqvwcgm;true;166.785;390;195;psychophysics;739979;experimental_data;NULL;NULL;NULL;NULL;11_11_2020_8_55_32
89;7;3;sortStructureExp;query;2;923;pink;pink,blue;300,39;180,21;49;1;1;y7a6denlnqvwcgm;true;166.781;390;195;psychophysics;741907;experimental_data;NULL;NULL;NULL;NULL;11_11_2020_8_55_32
90;0;3;sortStructureExp;bars;1;758;pink;pink;390;150;32;1;1;y7a6denlnqvwcgm;true;166.792;390;195;psychophysics;744684;experimental_data;NULL;NULL;NULL;NULL;11_11_2020_8_55_32
90;0;3;sortStructureExp;query;1;409;pink;pink;390;150;49;1;1;y7a6denlnqvwcgm;true;166.789;390;195;psychophysics;746100;experimental_data;NULL;NULL;NULL;NULL;11_11_2020_8_55_32
91;33;3;sortStructureExp;bars;7;7296;orange;yellow,pink,blue,white,orange,red,purple;390,570,300,480,120,210,660;150,180,210,240,270,300,330;32;5;1;y7a6denlnqvwcgm;false;166.781;390;195;psychophysics;755405;experimental_data;NULL;NULL;NULL;NULL;11_11_2020_8_55_32
91;33;3;sortStructureExp;query;7;4401;orange;yellow,pink,blue,white,orange,red,purple;390,570,300,480,120,210,660;150,180,210,240,270,300,330;49;5;1;y7a6denlnqvwcgm;false;166.782;390;195;psychophysics;760812;experimental_data;NULL;NULL;NULL;NULL;11_11_2020_8_55_32
92;15;3;sortStructureExp;bars;4;4194;blue;pink,blue,white,purple;390,480,300,210;210,240,270,300;32;2;2;y7a6denlnqvwcgm;true;166.782;390;195;psychophysics;767012;experimental_data;NULL;NULL;NULL;NULL;11_11_2020_8_55_32
92;15;3;sortStructureExp;query;4;1161;blue;pink,blue,white,purple;390,480,300,210;210,240,270,300;50;2;2;y7a6denlnqvwcgm;true;166.782;390;195;psychophysics;769180;experimental_data;NULL;NULL;NULL;NULL;11_11_2020_8_55_32
93;9;3;sortStructureExp;bars;2;2050;blue;pink,blue;300,39;210,24;32;2;2;y7a6denlnqvwcgm;true;166.779;390;195;psychophysics;773236;experimental_data;NULL;NULL;NULL;NULL;11_11_2020_8_55_32
93;9;3;sortStructureExp;query;2;562;blue;pink,blue;300,39;210,24;50;2;2;y7a6denlnqvwcgm;true;166.784;390;195;psychophysics;774804;experimental_data;NULL;NULL;NULL;NULL;11_11_2020_8_55_32
94;16;3;sortStructureExp;bars;4;3839;white;black,pink,blue,white;210,300,390,480;150,180,210,240;32;4;4;y7a6denlnqvwcgm;true;166.781;390;195;psychophysics;780652;experimental_data;NULL;NULL;NULL;NULL;11_11_2020_8_55_32
94;16;3;sortStructureExp;query;4;1881;white;black,pink,blue,white;210,300,390,480;150,180,210,240;52;4;4;y7a6denlnqvwcgm;true;166.777;390;195;psychophysics;783540;experimental_data;NULL;NULL;NULL;NULL;11_11_2020_8_55_32
95;8;3;sortStructureExp;bars;2;1345;blue;pink,blue;390,3;240,27;32;2;2;y7a6denlnqvwcgm;true;166.775;390;195;psychophysics;786892;experimental_data;NULL;NULL;NULL;NULL;11_11_2020_8_55_32
95;8;3;sortStructureExp;query;2;923;blue;pink,blue;390,3;240,27;50;2;2;y7a6denlnqvwcgm;true;166.789;390;195;psychophysics;788819;experimental_data;NULL;NULL;NULL;NULL;11_11_2020_8_55_32
96;29;3;sortStructureExp;bars;6;5243;blue;yellow,black,orange,pink,blue,white;480,300,570,390,210,120;180,210,240,270,300,330;32;5;5;y7a6denlnqvwcgm;true;166.782;390;195;psychophysics;796068;experimental_data;NULL;NULL;NULL;NULL;11_11_2020_8_55_32
96;29;3;sortStructureExp;query;6;3073;blue;yellow,black,orange,pink,blue,white;480,300,570,390,210,120;180,210,240,270,300,330;53;5;5;y7a6denlnqvwcgm;true;166.779;390;195;psychophysics;800148;experimental_data;NULL;NULL;NULL;NULL;11_11_2020_8_55_32
97;6;3;sortStructureExp;bars;2;906;pink;pink,blue;390,3;240,27;32;1;1;y7a6denlnqvwcgm;true;166.781;390;195;psychophysics;803060;experimental_data;NULL;NULL;NULL;NULL;11_11_2020_8_55_32
97;6;3;sortStructureExp;query;2;1803;pink;pink,blue;390,3;240,27;49;1;1;y7a6denlnqvwcgm;true;166.779;390;195;psychophysics;805868;experimental_data;NULL;NULL;NULL;NULL;11_11_2020_8_55_32
98;24;3;sortStructureExp;bars;5;3513;white;pink,blue,white,black,saddlebrown;300,480,210,390,570;180,210,240,270,300;32;3;3;y7a6denlnqvwcgm;true;166.781;390;195;psychophysics;811388;experimental_data;NULL;NULL;NULL;NULL;11_11_2020_8_55_32
98;24;3;sortStructureExp;query;5;2603;white;pink,blue,white,black,saddlebrown;300,480,210,390,570;180,210,240,270,300;51;3;3;y7a6denlnqvwcgm;true;166.782;390;195;psychophysics;814996;experimental_data;NULL;NULL;NULL;NULL;11_11_2020_8_55_32
99;10;3;sortStructureExp;bars;3;1920;blue;pink,blue,white;480,390,300;180,210,240;32;2;2;y7a6denlnqvwcgm;true;166.781;390;195;psychophysics;818923;experimental_data;NULL;NULL;NULL;NULL;11_11_2020_8_55_32
99;10;3;sortStructureExp;query;3;691;blue;pink,blue,white;480,390,300;180,210,240;50;2;2;y7a6denlnqvwcgm;true;166.786;390;195;psychophysics;820620;experimental_data;NULL;NULL;NULL;NULL;11_11_2020_8_55_32
100;20;3;sortStructureExp;bars;5;4480;purple;red,purple,pink,blue,white;480,570,390,210,300;180,210,240,270,300;32;2;2;y7a6denlnqvwcgm;true;166.783;390;195;psychophysics;827108;experimental_data;NULL;NULL;NULL;NULL;11_11_2020_8_55_32
100;20;3;sortStructureExp;query;5;1123;purple;red,purple,pink,blue,white;480,570,390,210,300;180,210,240,270,300;50;2;2;y7a6denlnqvwcgm;true;16.678;390;195;psychophysics;829235;experimental_data;NULL;NULL;NULL;NULL;11_11_2020_8_55_32
101;12;3;sortStructureExp;bars;3;1833;pink;pink,blue,white;300,480,390;180,210,240;32;1;1;y7a6denlnqvwcgm;true;166.777;390;195;psychophysics;833076;experimental_data;NULL;NULL;NULL;NULL;11_11_2020_8_55_32
101;12;3;sortStructureExp;query;3;658;pink;pink,blue,white;300,480,390;180,210,240;49;1;1;y7a6denlnqvwcgm;true;166.772;390;195;psychophysics;834739;experimental_data;NULL;NULL;NULL;NULL;11_11_2020_8_55_32
102;21;3;sortStructureExp;bars;5;3521;black;yellow,black,pink,blue,white;210,390,480,300,570;210,240,270,300,330;32;2;2;y7a6denlnqvwcgm;true;166.781;390;195;psychophysics;840269;experimental_data;NULL;NULL;NULL;NULL;11_11_2020_8_55_32
102;21;3;sortStructureExp;query;5;937;black;yellow,black,pink,blue,white;210,390,480,300,570;210,240,270,300,330;50;2;2;y7a6denlnqvwcgm;true;16.678;390;195;psychophysics;842212;experimental_data;NULL;NULL;NULL;NULL;11_11_2020_8_55_32
103;27;3;sortStructureExp;bars;6;4679;green;pink,blue,white,black,red,green;390,120,480,210,570,300;180,210,240,270,300,330;32;6;6;y7a6denlnqvwcgm;true;166.781;390;195;psychophysics;848899;experimental_data;NULL;NULL;NULL;NULL;11_11_2020_8_55_32
103;27;3;sortStructureExp;query;6;1947;green;pink,blue,white,black,red,green;390,120,480,210,570,300;180,210,240,270,300,330;54;6;6;y7a6denlnqvwcgm;true;166.782;390;195;psychophysics;851852;experimental_data;NULL;NULL;NULL;NULL;11_11_2020_8_55_32
104;30;3;sortStructureExp;bars;7;11665;yellow;purple,orange,yellow,saddlebrown,pink,blue,white;660,390,120,480,570,210,300;150,180,210,240,270,300,330;32;3;3;y7a6denlnqvwcgm;true;166.781;390;195;psychophysics;865524;experimental_data;NULL;NULL;NULL;NULL;11_11_2020_8_55_32
104;30;3;sortStructureExp;query;7;3072;yellow;purple,orange,yellow,saddlebrown,pink,blue,white;660,390,120,480,570,210,300;150,180,210,240,270,300,330;51;3;3;y7a6denlnqvwcgm;true;166.782;390;195;psychophysics;869603;experimental_data;NULL;NULL;NULL;NULL;11_11_2020_8_55_32
105;34;3;sortStructureExp;bars;7;9905;pink;orange,black,red,pink,blue,white,yellow;480,120,210,300,570,390,660;150,180,210,240,270,300,330;32;4;4;y7a6denlnqvwcgm;true;166.782;390;195;psychophysics;881516;experimental_data;NULL;NULL;NULL;NULL;11_11_2020_8_55_32
105;34;3;sortStructureExp;query;7;3074;pink;orange,black,red,pink,blue,white,yellow;480,120,210,300,570,390,660;150,180,210,240,270,300,330;52;4;4;y7a6denlnqvwcgm;true;166.779;390;195;psychophysics;885595;experimental_data;NULL;NULL;NULL;NULL;11_11_2020_8_55_32
NULL;NULL;0;NULL;end_of_block;NULL;3260;NULL;NULL;NULL;NULL;32;NULL;NULL;y7a6denlnqvwcgm;NULL;NULL;NULL;NULL;html-keyboard-response;889861;experimental_data;889876;148.313;0.942857;NULL;11_11_2020_8_55_32
106;13;4;noStructureExp;bars;3;2425;yellow;saddlebrown,red,yellow;390,300,480;270,300,330;32;3;3;y7a6denlnqvwcgm;true;166.782;390;195;psychophysics;893292;experimental_data;NULL;NULL;NULL;NULL;11_11_2020_8_55_32
106;13;4;noStructureExp;query;3;1187;yellow;saddlebrown,red,yellow;390,300,480;270,300,330;51;3;3;y7a6denlnqvwcgm;true;166.785;390;195;psychophysics;895484;experimental_data;NULL;NULL;NULL;NULL;11_11_2020_8_55_32
107;33;4;noStructureExp;bars;7;10062;saddlebrown;yellow,pink,saddlebrown,white,red,blue,orange;390,570,300,480,120,210,660;150,180,210,240,270,300,330;32;3;3;y7a6denlnqvwcgm;true;166.782;390;195;psychophysics;907556;experimental_data;NULL;NULL;NULL;NULL;11_11_2020_8_55_32
107;33;4;noStructureExp;query;7;1873;saddlebrown;yellow,pink,saddlebrown,white,red,blue,orange;390,570,300,480,120,210,660;150,180,210,240,270,300,330;51;3;3;y7a6denlnqvwcgm;true;166.775;390;195;psychophysics;910435;experimental_data;NULL;NULL;NULL;NULL;11_11_2020_8_55_32
108;4;4;noStructureExp;bars;1;823;black;black;390;180;32;1;1;y7a6denlnqvwcgm;true;166.784;390;195;psychophysics;913267;experimental_data;NULL;NULL;NULL;NULL;11_11_2020_8_55_32
108;4;4;noStructureExp;query;1;435;black;black;390;180;49;1;1;y7a6denlnqvwcgm;true;166.774;390;195;psychophysics;914707;experimental_data;NULL;NULL;NULL;NULL;11_11_2020_8_55_32
109;26;4;noStructureExp;bars;6;5788;pink;pink,orange,saddlebrown,red,black,yellow;300,210,120,480,570,390;180,210,240,270,300,330;32;1;1;y7a6denlnqvwcgm;true;166.781;390;195;psychophysics;922500;experimental_data;NULL;NULL;NULL;NULL;11_11_2020_8_55_32
109;26;4;noStructureExp;query;6;1226;pink;pink,orange,saddlebrown,red,black,yellow;300,210,120,480,570,390;180,210,240,270,300,330;49;1;1;y7a6denlnqvwcgm;true;166.783;390;195;psychophysics;924731;experimental_data;NULL;NULL;NULL;NULL;11_11_2020_8_55_32
110;20;4;noStructureExp;bars;5;4051;blue;saddlebrown,blue,green,white,pink;480,570,390,210,300;180,210,240,270,300;32;2;2;y7a6denlnqvwcgm;true;166.779;390;195;psychophysics;930787;experimental_data;NULL;NULL;NULL;NULL;11_11_2020_8_55_32
110;20;4;noStructureExp;query;5;1017;blue;saddlebrown,blue,green,white,pink;480,570,390,210,300;180,210,240,270,300;50;2;2;y7a6denlnqvwcgm;true;16.678;390;195;psychophysics;932812;experimental_data;NULL;NULL;NULL;NULL;11_11_2020_8_55_32
111;30;4;noStructureExp;bars;7;5862;yellow;red,green,black,white,yellow,orange,purple;660,390,120,480,570,210,300;150,180,210,240,270,300,330;32;5;5;y7a6denlnqvwcgm;true;16.678;390;195;psychophysics;940682;experimental_data;NULL;NULL;NULL;NULL;11_11_2020_8_55_32
111;30;4;noStructureExp;query;7;3380;yellow;red,green,black,white,yellow,orange,purple;660,390,120,480,570,210,300;150,180,210,240,270,300,330;53;5;5;y7a6denlnqvwcgm;true;16.678;390;195;psychophysics;945067;experimental_data;NULL;NULL;NULL;NULL;11_11_2020_8_55_32
112;2;4;noStructureExp;bars;1;862;purple;purple;390;150;32;1;1;y7a6denlnqvwcgm;true;166.781;390;195;psychophysics;947938;experimental_data;NULL;NULL;NULL;NULL;11_11_2020_8_55_32
112;2;4;noStructureExp;query;1;435;purple;purple;390;150;49;1;1;y7a6denlnqvwcgm;true;166.781;390;195;psychophysics;949378;experimental_data;NULL;NULL;NULL;NULL;11_11_2020_8_55_32
113;29;4;noStructureExp;bars;6;3738;green;pink,black,green,white,yellow,red;480,300,570,390,210,120;180,210,240,270,300,330;32;3;4;y7a6denlnqvwcgm;false;166.782;390;195;psychophysics;955123;experimental_data;NULL;NULL;NULL;NULL;11_11_2020_8_55_32
113;29;4;noStructureExp;query;6;3578;green;pink,black,green,white,yellow,red;480,300,570,390,210,120;180,210,240,270,300,330;52;3;4;y7a6denlnqvwcgm;false;166.782;390;195;psychophysics;959707;experimental_data;NULL;NULL;NULL;NULL;11_11_2020_8_55_32
114;14;4;noStructureExp;bars;3;2040;red;green,red,yellow;300,480,390;240,270,300;32;2;2;y7a6denlnqvwcgm;true;166.778;390;195;psychophysics;963771;experimental_data;NULL;NULL;NULL;NULL;11_11_2020_8_55_32
114;14;4;noStructureExp;query;3;2475;red;green,red,yellow;300,480,390;240,270,300;50;2;2;y7a6denlnqvwcgm;true;16.678;390;195;psychophysics;967252;experimental_data;NULL;NULL;NULL;NULL;11_11_2020_8_55_32
115;16;4;noStructureExp;bars;4;3263;yellow;yellow,purple,saddlebrown,white;210,300,390,480;150,180,210,240;32;1;1;y7a6denlnqvwcgm;true;16.678;390;195;psychophysics;972523;experimental_data;NULL;NULL;NULL;NULL;11_11_2020_8_55_32
115;16;4;noStructureExp;query;4;626;yellow;yellow,purple,saddlebrown,white;210,300,390,480;150,180,210,240;49;1;1;y7a6denlnqvwcgm;true;166.774;390;195;psychophysics;974154;experimental_data;NULL;NULL;NULL;NULL;11_11_2020_8_55_32
116;32;4;noStructureExp;bars;7;5239;pink;saddlebrown,blue,pink,yellow,white,orange,purple;660,300,390,120,570,210,480;150,180,210,240,270,300,330;32;3;3;y7a6denlnqvwcgm;true;166.779;390;195;psychophysics;981403;experimental_data;NULL;NULL;NULL;NULL;11_11_2020_8_55_32
116;32;4;noStructureExp;query;7;2522;pink;saddlebrown,blue,pink,yellow,white,orange,purple;660,300,390,120,570,210,480;150,180,210,240,270,300,330;51;3;3;y7a6denlnqvwcgm;true;166.785;390;195;psychophysics;984930;experimental_data;NULL;NULL;NULL;NULL;11_11_2020_8_55_32
117;21;4;noStructureExp;bars;5;3576;pink;white,red,yellow,blue,pink;210,390,480,300,570;210,240,270,300,330;32;5;5;y7a6denlnqvwcgm;true;166.781;390;195;psychophysics;990515;experimental_data;NULL;NULL;NULL;NULL;11_11_2020_8_55_32
117;21;4;noStructureExp;query;5;3018;pink;white,red,yellow,blue,pink;210,390,480,300,570;210,240,270,300,330;53;5;5;y7a6denlnqvwcgm;true;166.778;390;195;psychophysics;994540;experimental_data;NULL;NULL;NULL;NULL;11_11_2020_8_55_32
118;11;4;noStructureExp;bars;3;1622;green;saddlebrown,orange,green;480,300,390;210,240,270;32;3;2;y7a6denlnqvwcgm;false;166.782;390;195;psychophysics;998172;experimental_data;NULL;NULL;NULL;NULL;11_11_2020_8_55_32
118;11;4;noStructureExp;query;3;1336;green;saddlebrown,orange,green;480,300,390;210,240,270;50;3;2;y7a6denlnqvwcgm;false;166.779;390;195;psychophysics;1000515;experimental_data;NULL;NULL;NULL;NULL;11_11_2020_8_55_32
119;28;4;noStructureExp;bars;6;6198;orange;pink,purple,orange,blue,saddlebrown,red;390,120,210,480,570,300;150,180,210,240,270,300;32;3;3;y7a6denlnqvwcgm;true;166.782;390;195;psychophysics;1008724;experimental_data;NULL;NULL;NULL;NULL;11_11_2020_8_55_32
119;28;4;noStructureExp;query;6;1936;orange;pink,purple,orange,blue,saddlebrown,red;390,120,210,480,570,300;150,180,210,240,270,300;51;3;3;y7a6denlnqvwcgm;true;166.776;390;195;psychophysics;1011667;experimental_data;NULL;NULL;NULL;NULL;11_11_2020_8_55_32
120;24;4;noStructureExp;bars;5;9368;green;saddlebrown,green,blue,orange,pink;300,480,210,390,570;180,210,240,270,300;32;2;2;y7a6denlnqvwcgm;true;166.781;390;195;psychophysics;1023044;experimental_data;NULL;NULL;NULL;NULL;11_11_2020_8_55_32
120;24;4;noStructureExp;query;5;1810;green;saddlebrown,green,blue,orange,pink;300,480,210,390,570;180,210,240,270,300;50;2;2;y7a6denlnqvwcgm;true;166.781;390;195;psychophysics;1025859;experimental_data;NULL;NULL;NULL;NULL;11_11_2020_8_55_32
121;23;4;noStructureExp;bars;5;3505;yellow;orange,saddlebrown,red,black,yellow;390,480,570,300,210;180,210,240,270,300;32;5;5;y7a6denlnqvwcgm;true;166.784;390;195;psychophysics;1031371;experimental_data;NULL;NULL;NULL;NULL;11_11_2020_8_55_32
121;23;4;noStructureExp;query;5;3171;yellow;orange,saddlebrown,red,black,yellow;390,480,570,300,210;180,210,240,270,300;53;5;5;y7a6denlnqvwcgm;true;166.783;390;195;psychophysics;1035548;experimental_data;NULL;NULL;NULL;NULL;11_11_2020_8_55_32
122;8;4;noStructureExp;bars;2;846;green;purple,green;390,3;240,27;32;2;2;y7a6denlnqvwcgm;true;166.772;390;195;psychophysics;1038403;experimental_data;NULL;NULL;NULL;NULL;11_11_2020_8_55_32
122;8;4;noStructureExp;query;2;674;green;purple,green;390,3;240,27;50;2;2;y7a6denlnqvwcgm;true;166.782;390;195;psychophysics;1040091;experimental_data;NULL;NULL;NULL;NULL;11_11_2020_8_55_32
123;6;4;noStructureExp;bars;2;1265;black;green,black;390,3;240,27;32;2;2;y7a6denlnqvwcgm;true;166.785;390;195;psychophysics;1043363;experimental_data;NULL;NULL;NULL;NULL;11_11_2020_8_55_32
123;6;4;noStructureExp;query;2;819;black;green,black;390,3;240,27;50;2;2;y7a6denlnqvwcgm;true;166.791;390;195;psychophysics;1045187;experimental_data;NULL;NULL;NULL;NULL;11_11_2020_8_55_32
124;12;4;noStructureExp;bars;3;2057;red;red,blue,green;300,480,390;180,210,240;32;1;1;y7a6denlnqvwcgm;true;166.778;390;195;psychophysics;1049252;experimental_data;NULL;NULL;NULL;NULL;11_11_2020_8_55_32
124;12;4;noStructureExp;query;3;751;red;red,blue,green;300,480,390;180,210,240;49;1;1;y7a6denlnqvwcgm;true;166.781;390;195;psychophysics;1051011;experimental_data;NULL;NULL;NULL;NULL;11_11_2020_8_55_32
125;34;4;noStructureExp;bars;7;5597;black;saddlebrown,green,white,red,black,yellow,purple;480,120,210,300,570,390,660;150,180,210,240,270,300,330;32;5;5;y7a6denlnqvwcgm;true;16.678;390;195;psychophysics;1058618;experimental_data;NULL;NULL;NULL;NULL;11_11_2020_8_55_32
125;34;4;noStructureExp;query;7;3323;black;saddlebrown,green,white,red,black,yellow,purple;480,120,210,300,570,390,660;150,180,210,240,270,300,330;53;5;5;y7a6denlnqvwcgm;true;166.779;390;195;psychophysics;1062947;experimental_data;NULL;NULL;NULL;NULL;11_11_2020_8_55_32
126;10;4;noStructureExp;bars;3;1939;pink;orange,green,pink;480,390,300;180,210,240;32;3;3;y7a6denlnqvwcgm;true;166.777;390;195;psychophysics;1066906;experimental_data;NULL;NULL;NULL;NULL;11_11_2020_8_55_32
126;10;4;noStructureExp;query;3;1441;pink;orange,green,pink;480,390,300;180,210,240;51;3;3;y7a6denlnqvwcgm;true;166.787;390;195;psychophysics;1069355;experimental_data;NULL;NULL;NULL;NULL;11_11_2020_8_55_32
127;31;4;noStructureExp;bars;7;4353;orange;white,red,pink,orange,purple,blue,saddlebrown;210,570,660,300,120,390,480;150,180,210,240,270,300,330;32;4;4;y7a6denlnqvwcgm;true;166.781;390;195;psychophysics;1075715;experimental_data;NULL;NULL;NULL;NULL;11_11_2020_8_55_32
127;31;4;noStructureExp;query;7;2377;orange;white,red,pink,orange,purple,blue,saddlebrown;210,570,660,300,120,390,480;150,180,210,240,270,300,330;52;4;4;y7a6denlnqvwcgm;true;166.781;390;195;psychophysics;1079099;experimental_data;NULL;NULL;NULL;NULL;11_11_2020_8_55_32
128;18;4;noStructureExp;bars;4;2260;white;white,blue,black,pink;390,210,300,480;240,270,300,330;32;1;1;y7a6denlnqvwcgm;true;16.678;390;195;psychophysics;1083370;experimental_data;NULL;NULL;NULL;NULL;11_11_2020_8_55_32
128;18;4;noStructureExp;query;4;1443;white;white,blue,black,pink;390,210,300,480;240,270,300,330;49;1;1;y7a6denlnqvwcgm;true;166.776;390;195;psychophysics;1085819;experimental_data;NULL;NULL;NULL;NULL;11_11_2020_8_55_32
129;22;4;noStructureExp;bars;5;4305;purple;red,orange,white,yellow,purple;480,570,390,300,210;210,240,270,300,330;32;5;5;y7a6denlnqvwcgm;true;166.781;390;195;psychophysics;1092130;experimental_data;NULL;NULL;NULL;NULL;11_11_2020_8_55_32
129;22;4;noStructureExp;query;5;2595;purple;red,orange,white,yellow,purple;480,570,390,300,210;210,240,270,300,330;53;5;5;y7a6denlnqvwcgm;true;166.783;390;195;psychophysics;1095730;experimental_data;NULL;NULL;NULL;NULL;11_11_2020_8_55_32
130;3;4;noStructureExp;bars;1;823;saddlebrown;saddlebrown;390;270;32;1;1;y7a6denlnqvwcgm;true;166.784;390;195;psychophysics;1098563;experimental_data;NULL;NULL;NULL;NULL;11_11_2020_8_55_32
130;3;4;noStructureExp;query;1;465;saddlebrown;saddlebrown;390;270;49;1;1;y7a6denlnqvwcgm;true;166.794;390;195;psychophysics;1100034;experimental_data;NULL;NULL;NULL;NULL;11_11_2020_8_55_32
131;1;4;noStructureExp;bars;1;838;purple;purple;390;150;32;1;1;y7a6denlnqvwcgm;true;166.783;390;195;psychophysics;1102882;experimental_data;NULL;NULL;NULL;NULL;11_11_2020_8_55_32
131;1;4;noStructureExp;query;1;395;purple;purple;390;150;49;1;1;y7a6denlnqvwcgm;true;166.783;390;195;psychophysics;1104282;experimental_data;NULL;NULL;NULL;NULL;11_11_2020_8_55_32
132;17;4;noStructureExp;bars;4;2761;pink;yellow,pink,green,white;480,390,210,300;210,240,270,300;32;2;4;y7a6denlnqvwcgm;false;166.784;390;195;psychophysics;1109051;experimental_data;NULL;NULL;NULL;NULL;11_11_2020_8_55_32
132;17;4;noStructureExp;query;4;1594;pink;yellow,pink,green,white;480,390,210,300;210,240,270,300;52;2;4;y7a6denlnqvwcgm;false;166.782;390;195;psychophysics;1111651;experimental_data;NULL;NULL;NULL;NULL;11_11_2020_8_55_32
133;0;4;noStructureExp;bars;1;905;green;green;390;150;32;1;1;y7a6denlnqvwcgm;true;166.778;390;195;psychophysics;1114563;experimental_data;NULL;NULL;NULL;NULL;11_11_2020_8_55_32
133;0;4;noStructureExp;query;1;344;green;green;390;150;49;1;1;y7a6denlnqvwcgm;true;166.744;390;195;psychophysics;1115915;experimental_data;NULL;NULL;NULL;NULL;11_11_2020_8_55_32
134;25;4;noStructureExp;bars;6;5142;blue;blue,pink,saddlebrown,orange,white,black;390,300,570,120,480,210;150,180,210,240,270,300;32;1;1;y7a6denlnqvwcgm;true;166.781;390;195;psychophysics;1123067;experimental_data;NULL;NULL;NULL;NULL;11_11_2020_8_55_32
134;25;4;noStructureExp;query;6;1147;blue;blue,pink,saddlebrown,orange,white,black;390,300,570,120,480,210;150,180,210,240,270,300;49;1;1;y7a6denlnqvwcgm;true;166.782;390;195;psychophysics;1125219;experimental_data;NULL;NULL;NULL;NULL;11_11_2020_8_55_32
135;5;4;noStructureExp;bars;2;894;saddlebrown;yellow,saddlebrown;300,39;210,24;32;2;2;y7a6denlnqvwcgm;true;166.773;390;195;psychophysics;1128123;experimental_data;NULL;NULL;NULL;NULL;11_11_2020_8_55_32
135;5;4;noStructureExp;query;2;609;saddlebrown;yellow,saddlebrown;300,39;210,24;50;2;2;y7a6denlnqvwcgm;true;166.778;390;195;psychophysics;1129739;experimental_data;NULL;NULL;NULL;NULL;11_11_2020_8_55_32
136;27;4;noStructureExp;bars;6;3662;orange;orange,white,green,yellow,black,red;390,120,480,210,570,300;180,210,240,270,300,330;32;1;1;y7a6denlnqvwcgm;true;166.782;390;195;psychophysics;1135411;experimental_data;NULL;NULL;NULL;NULL;11_11_2020_8_55_32
136;27;4;noStructureExp;query;6;1417;orange;orange,white,green,yellow,black,red;390,120,480,210,570,300;180,210,240,270,300,330;49;1;1;y7a6denlnqvwcgm;true;16.678;390;195;psychophysics;1137834;experimental_data;NULL;NULL;NULL;NULL;11_11_2020_8_55_32
137;19;4;noStructureExp;bars;4;2098;green;white,purple,blue,green;480,210,300,390;210,240,270,300;32;4;4;y7a6denlnqvwcgm;true;166.779;390;195;psychophysics;1141938;experimental_data;NULL;NULL;NULL;NULL;11_11_2020_8_55_32
137;19;4;noStructureExp;query;4;2387;green;white,purple,blue,green;480,210,300,390;210,240,270,300;52;4;4;y7a6denlnqvwcgm;true;166.779;390;195;psychophysics;1145330;experimental_data;NULL;NULL;NULL;NULL;11_11_2020_8_55_32
138;7;4;noStructureExp;bars;2;929;white;white,red;300,39;180,21;32;1;1;y7a6denlnqvwcgm;true;166.779;390;195;psychophysics;1148267;experimental_data;NULL;NULL;NULL;NULL;11_11_2020_8_55_32
138;7;4;noStructureExp;query;2;737;white;white,red;300,39;180,21;49;1;1;y7a6denlnqvwcgm;true;166.799;390;195;psychophysics;1150011;experimental_data;NULL;NULL;NULL;NULL;11_11_2020_8_55_32
139;9;4;noStructureExp;bars;2;736;orange;orange,green;300,39;210,24;32;1;1;y7a6denlnqvwcgm;true;166.784;390;195;psychophysics;1152754;experimental_data;NULL;NULL;NULL;NULL;11_11_2020_8_55_32
139;9;4;noStructureExp;query;2;779;orange;orange,green;300,39;210,24;49;1;1;y7a6denlnqvwcgm;true;16.678;390;195;psychophysics;1154538;experimental_data;NULL;NULL;NULL;NULL;11_11_2020_8_55_32
140;15;4;noStructureExp;bars;4;3536;green;purple,pink,green,white;390,480,300,210;210,240,270,300;32;3;3;y7a6denlnqvwcgm;true;166.781;390;195;psychophysics;1160083;experimental_data;NULL;NULL;NULL;NULL;11_11_2020_8_55_32
140;15;4;noStructureExp;query;4;2027;green;purple,pink,green,white;390,480,300,210;210,240,270,300;51;3;3;y7a6denlnqvwcgm;true;166.781;390;195;psychophysics;1163114;experimental_data;NULL;NULL;NULL;NULL;11_11_2020_8_55_32
NULL;NULL;0;NULL;end_of_block;NULL;3373;NULL;NULL;NULL;NULL;32;NULL;NULL;y7a6denlnqvwcgm;NULL;NULL;NULL;NULL;html-keyboard-response;1167492;experimental_data;1167507;194.585;0.914286;NULL;11_11_2020_8_55_32
141;27;5;queryStructureExp;bars;6;4804;yellow;blue,red,black,purple,pink,yellow;390,120,480,210,570,300;180,210,240,270,300,330;32;6;6;y7a6denlnqvwcgm;true;166.784;390;195;psychophysics;1173300;experimental_data;NULL;NULL;NULL;NULL;11_11_2020_8_55_32
141;27;5;queryStructureExp;query;6;3022;yellow;blue,red,black,purple,pink,yellow;390,120,480,210,570,300;180,210,240,270,300,330;54;6;6;y7a6denlnqvwcgm;true;166.779;390;195;psychophysics;1177331;experimental_data;NULL;NULL;NULL;NULL;11_11_2020_8_55_32
142;12;5;queryStructureExp;bars;3;3479;yellow;red,white,yellow;300,480,390;180,210,240;32;3;3;y7a6denlnqvwcgm;true;16.678;390;195;psychophysics;1182819;experimental_data;NULL;NULL;NULL;NULL;11_11_2020_8_55_32
142;12;5;queryStructureExp;query;3;1417;yellow;red,white,yellow;300,480,390;180,210,240;51;3;3;y7a6denlnqvwcgm;true;16.678;390;195;psychophysics;1185243;experimental_data;NULL;NULL;NULL;NULL;11_11_2020_8_55_32
143;29;5;queryStructureExp;bars;6;5042;blue;saddlebrown,black,green,white,pink,blue;480,300,570,390,210,120;180,210,240,270,300,330;32;6;6;y7a6denlnqvwcgm;true;166.782;390;195;psychophysics;1192291;experimental_data;NULL;NULL;NULL;NULL;11_11_2020_8_55_32
143;29;5;queryStructureExp;query;6;4147;blue;saddlebrown,black,green,white,pink,blue;480,300,570,390,210,120;180,210,240,270,300,330;54;6;6;y7a6denlnqvwcgm;true;166.783;390;195;psychophysics;1197444;experimental_data;NULL;NULL;NULL;NULL;11_11_2020_8_55_32
144;25;5;queryStructureExp;bars;6;4928;white;yellow,blue,red,green,purple,white;390,300,570,120,480,210;150,180,210,240,270,300;32;6;6;y7a6denlnqvwcgm;true;166.781;390;195;psychophysics;1204379;experimental_data;NULL;NULL;NULL;NULL;11_11_2020_8_55_32
144;25;5;queryStructureExp;query;6;3876;white;yellow,blue,red,green,purple,white;390,300,570,120,480,210;150,180,210,240,270,300;54;6;6;y7a6denlnqvwcgm;true;16.678;390;195;psychophysics;1209260;experimental_data;NULL;NULL;NULL;NULL;11_11_2020_8_55_32
145;23;5;queryStructureExp;bars;5;4174;purple;black,saddlebrown,orange,yellow,purple;390,480,570,300,210;180,210,240,270,300;32;5;5;y7a6denlnqvwcgm;true;166.782;390;195;psychophysics;1215443;experimental_data;NULL;NULL;NULL;NULL;11_11_2020_8_55_32
145;23;5;queryStructureExp;query;5;2843;purple;black,saddlebrown,orange,yellow,purple;390,480,570,300,210;180,210,240,270,300;53;5;5;y7a6denlnqvwcgm;true;166.782;390;195;psychophysics;1219292;experimental_data;NULL;NULL;NULL;NULL;11_11_2020_8_55_32
146;8;5;queryStructureExp;bars;2;1086;blue;red,blue;390,3;240,27;32;2;2;y7a6denlnqvwcgm;true;166.781;390;195;psychophysics;1222387;experimental_data;NULL;NULL;NULL;NULL;11_11_2020_8_55_32
146;8;5;queryStructureExp;query;2;859;blue;red,blue;390,3;240,27;50;2;2;y7a6denlnqvwcgm;true;166.776;390;195;psychophysics;1224251;experimental_data;NULL;NULL;NULL;NULL;11_11_2020_8_55_32
147;13;5;queryStructureExp;bars;3;2945;green;orange,yellow,green;390,300,480;270,300,330;32;3;3;y7a6denlnqvwcgm;true;166.782;390;195;psychophysics;1229203;experimental_data;NULL;NULL;NULL;NULL;11_11_2020_8_55_32
147;13;5;queryStructureExp;query;3;1563;green;orange,yellow,green;390,300,480;270,300,330;51;3;3;y7a6denlnqvwcgm;true;166.782;390;195;psychophysics;1231771;experimental_data;NULL;NULL;NULL;NULL;11_11_2020_8_55_32
148;21;5;queryStructureExp;bars;5;6217;white;yellow,pink,purple,saddlebrown,white;210,390,480,300,570;210,240,270,300,330;32;5;5;y7a6denlnqvwcgm;true;166.783;390;195;psychophysics;1239995;experimental_data;NULL;NULL;NULL;NULL;11_11_2020_8_55_32
148;21;5;queryStructureExp;query;5;1859;white;yellow,pink,purple,saddlebrown,white;210,390,480,300,570;210,240,270,300,330;53;5;5;y7a6denlnqvwcgm;true;166.783;390;195;psychophysics;1242860;experimental_data;NULL;NULL;NULL;NULL;11_11_2020_8_55_32
149;3;5;queryStructureExp;bars;1;911;saddlebrown;saddlebrown;390;270;32;1;1;y7a6denlnqvwcgm;true;16.678;390;195;psychophysics;1245778;experimental_data;NULL;NULL;NULL;NULL;11_11_2020_8_55_32
149;3;5;queryStructureExp;query;1;388;saddlebrown;saddlebrown;390;270;49;1;1;y7a6denlnqvwcgm;true;166.766;390;195;psychophysics;1247170;experimental_data;NULL;NULL;NULL;NULL;11_11_2020_8_55_32
150;28;5;queryStructureExp;bars;6;3247;black;yellow,saddlebrown,blue,purple,red,black;390,120,210,480,570,300;150,180,210,240,270,300;32;6;6;y7a6denlnqvwcgm;true;166.781;390;195;psychophysics;1252434;experimental_data;NULL;NULL;NULL;NULL;11_11_2020_8_55_32
150;28;5;queryStructureExp;query;6;2795;black;yellow,saddlebrown,blue,purple,red,black;390,120,210,480,570,300;150,180,210,240,270,300;54;6;6;y7a6denlnqvwcgm;true;166.782;390;195;psychophysics;1256235;experimental_data;NULL;NULL;NULL;NULL;11_11_2020_8_55_32
151;14;5;queryStructureExp;bars;3;2598;purple;saddlebrown,white,purple;300,480,390;240,270,300;32;3;3;y7a6denlnqvwcgm;true;16.678;390;195;psychophysics;1260842;experimental_data;NULL;NULL;NULL;NULL;11_11_2020_8_55_32
151;14;5;queryStructureExp;query;3;925;purple;saddlebrown,white,purple;300,480,390;240,270,300;51;3;3;y7a6denlnqvwcgm;true;166.783;390;195;psychophysics;1262772;experimental_data;NULL;NULL;NULL;NULL;11_11_2020_8_55_32
152;2;5;queryStructureExp;bars;1;764;orange;orange;390;150;32;1;1;y7a6denlnqvwcgm;true;166.773;390;195;psychophysics;1265546;experimental_data;NULL;NULL;NULL;NULL;11_11_2020_8_55_32
152;2;5;queryStructureExp;query;1;483;orange;orange;390;150;49;1;1;y7a6denlnqvwcgm;true;166.794;390;195;psychophysics;1267035;experimental_data;NULL;NULL;NULL;NULL;11_11_2020_8_55_32
153;19;5;queryStructureExp;bars;4;2869;blue;black,pink,orange,blue;480,210,300,390;210,240,270,300;32;4;4;y7a6denlnqvwcgm;true;166.783;390;195;psychophysics;1271915;experimental_data;NULL;NULL;NULL;NULL;11_11_2020_8_55_32
153;19;5;queryStructureExp;query;4;2747;blue;black,pink,orange,blue;480,210,300,390;210,240,270,300;52;4;4;y7a6denlnqvwcgm;true;166.782;390;195;psychophysics;1275667;experimental_data;NULL;NULL;NULL;NULL;11_11_2020_8_55_32
154;30;5;queryStructureExp;bars;7;5304;green;purple,white,orange,blue,pink,red,green;660,390,120,480,570,210,300;150,180,210,240,270,300,330;32;7;7;y7a6denlnqvwcgm;true;166.781;390;195;psychophysics;1282979;experimental_data;NULL;NULL;NULL;NULL;11_11_2020_8_55_32
154;30;5;queryStructureExp;query;7;4080;green;purple,white,orange,blue,pink,red,green;660,390,120,480,570,210,300;150,180,210,240,270,300,330;55;7;7;y7a6denlnqvwcgm;true;16.678;390;195;psychophysics;1288066;experimental_data;NULL;NULL;NULL;NULL;11_11_2020_8_55_32
155;32;5;queryStructureExp;bars;7;4879;green;orange,yellow,blue,red,pink,black,green;660,300,390,120,570,210,480;150,180,210,240,270,300,330;32;7;6;y7a6denlnqvwcgm;false;166.781;390;195;psychophysics;1294964;experimental_data;NULL;NULL;NULL;NULL;11_11_2020_8_55_32
155;32;5;queryStructureExp;query;7;2225;green;orange,yellow,blue,red,pink,black,green;660,300,390,120,570,210,480;150,180,210,240,270,300,330;54;7;6;y7a6denlnqvwcgm;false;166.783;390;195;psychophysics;1298194;experimental_data;NULL;NULL;NULL;NULL;11_11_2020_8_55_32
156;4;5;queryStructureExp;bars;1;867;red;red;390;180;32;1;1;y7a6denlnqvwcgm;true;166.781;390;195;psychophysics;1301066;experimental_data;NULL;NULL;NULL;NULL;11_11_2020_8_55_32
156;4;5;queryStructureExp;query;1;451;red;red;390;180;49;1;1;y7a6denlnqvwcgm;true;16.678;390;195;psychophysics;1302523;experimental_data;NULL;NULL;NULL;NULL;11_11_2020_8_55_32
157;22;5;queryStructureExp;bars;5;2395;purple;saddlebrown,blue,green,pink,purple;480,570,390,300,210;210,240,270,300,330;32;5;5;y7a6denlnqvwcgm;true;16.678;390;195;psychophysics;1306923;experimental_data;NULL;NULL;NULL;NULL;11_11_2020_8_55_32
157;22;5;queryStructureExp;query;5;2665;purple;saddlebrown,blue,green,pink,purple;480,570,390,300,210;210,240,270,300,330;53;5;5;y7a6denlnqvwcgm;true;166.781;390;195;psychophysics;1310595;experimental_data;NULL;NULL;NULL;NULL;11_11_2020_8_55_32
158;34;5;queryStructureExp;bars;7;6234;black;red,white,orange,blue,saddlebrown,yellow,black;480,120,210,300,570,390,660;150,180,210,240,270,300,330;32;7;7;y7a6denlnqvwcgm;true;16.678;390;195;psychophysics;1318836;experimental_data;NULL;NULL;NULL;NULL;11_11_2020_8_55_32
158;34;5;queryStructureExp;query;7;2142;black;red,white,orange,blue,saddlebrown,yellow,black;480,120,210,300,570,390,660;150,180,210,240,270,300,330;55;7;7;y7a6denlnqvwcgm;true;16.678;390;195;psychophysics;1321986;experimental_data;NULL;NULL;NULL;NULL;11_11_2020_8_55_32
159;24;5;queryStructureExp;bars;5;2591;orange;black,yellow,purple,red,orange;300,480,210,390,570;180,210,240,270,300;32;5;5;y7a6denlnqvwcgm;true;166.779;390;195;psychophysics;1326586;experimental_data;NULL;NULL;NULL;NULL;11_11_2020_8_55_32
159;24;5;queryStructureExp;query;5;2490;orange;black,yellow,purple,red,orange;300,480,210,390,570;180,210,240,270,300;53;5;5;y7a6denlnqvwcgm;true;166.784;390;195;psychophysics;1330083;experimental_data;NULL;NULL;NULL;NULL;11_11_2020_8_55_32
160;18;5;queryStructureExp;bars;4;3465;purple;orange,saddlebrown,pink,purple;390,210,300,480;240,270,300,330;32;4;4;y7a6denlnqvwcgm;true;166.781;390;195;psychophysics;1335555;experimental_data;NULL;NULL;NULL;NULL;11_11_2020_8_55_32
160;18;5;queryStructureExp;query;4;1954;purple;orange,saddlebrown,pink,purple;390,210,300,480;240,270,300,330;52;4;4;y7a6denlnqvwcgm;true;166.781;390;195;psychophysics;1338515;experimental_data;NULL;NULL;NULL;NULL;11_11_2020_8_55_32
161;1;5;queryStructureExp;bars;1;718;red;red;390;150;32;1;1;y7a6denlnqvwcgm;true;166.795;390;195;psychophysics;1341244;experimental_data;NULL;NULL;NULL;NULL;11_11_2020_8_55_32
161;1;5;queryStructureExp;query;1;425;red;red;390;150;49;1;1;y7a6denlnqvwcgm;true;166.774;390;195;psychophysics;1342675;experimental_data;NULL;NULL;NULL;NULL;11_11_2020_8_55_32
162;26;5;queryStructureExp;bars;6;4790;pink;orange,green,white,saddlebrown,yellow,pink;300,210,120,480,570,390;180,210,240,270,300,330;32;6;6;y7a6denlnqvwcgm;true;166.778;390;195;psychophysics;1349474;experimental_data;NULL;NULL;NULL;NULL;11_11_2020_8_55_32
162;26;5;queryStructureExp;query;6;2972;pink;orange,green,white,saddlebrown,yellow,pink;300,210,120,480,570,390;180,210,240,270,300,330;54;6;6;y7a6denlnqvwcgm;true;166.779;390;195;psychophysics;1353451;experimental_data;NULL;NULL;NULL;NULL;11_11_2020_8_55_32
163;15;5;queryStructureExp;bars;4;3089;blue;pink,yellow,saddlebrown,blue;390,480,300,210;210,240,270,300;32;4;4;y7a6denlnqvwcgm;true;166.778;390;195;psychophysics;1358546;experimental_data;NULL;NULL;NULL;NULL;11_11_2020_8_55_32
163;15;5;queryStructureExp;query;4;1895;blue;pink,yellow,saddlebrown,blue;390,480,300,210;210,240,270,300;52;4;4;y7a6denlnqvwcgm;true;166.779;390;195;psychophysics;1361450;experimental_data;NULL;NULL;NULL;NULL;11_11_2020_8_55_32
164;5;5;queryStructureExp;bars;2;1448;green;purple,green;300,39;210,24;32;2;2;y7a6denlnqvwcgm;true;166.779;390;195;psychophysics;1364907;experimental_data;NULL;NULL;NULL;NULL;11_11_2020_8_55_32
164;5;5;queryStructureExp;query;2;850;green;purple,green;300,39;210,24;50;2;2;y7a6denlnqvwcgm;true;166.778;390;195;psychophysics;1366762;experimental_data;NULL;NULL;NULL;NULL;11_11_2020_8_55_32
165;9;5;queryStructureExp;bars;2;1527;yellow;saddlebrown,yellow;300,39;210,24;32;2;2;y7a6denlnqvwcgm;true;166.778;390;195;psychophysics;1370298;experimental_data;NULL;NULL;NULL;NULL;11_11_2020_8_55_32
165;9;5;queryStructureExp;query;2;914;yellow;saddlebrown,yellow;300,39;210,24;50;2;2;y7a6denlnqvwcgm;true;166.788;390;195;psychophysics;1372226;experimental_data;NULL;NULL;NULL;NULL;11_11_2020_8_55_32
166;16;5;queryStructureExp;bars;4;4041;red;green,purple,saddlebrown,red;210,300,390,480;150,180,210,240;32;4;4;y7a6denlnqvwcgm;true;166.779;390;195;psychophysics;1378276;experimental_data;NULL;NULL;NULL;NULL;11_11_2020_8_55_32
166;16;5;queryStructureExp;query;4;1150;red;green,purple,saddlebrown,red;210,300,390,480;150,180,210,240;52;4;4;y7a6denlnqvwcgm;true;16.678;390;195;psychophysics;1380435;experimental_data;NULL;NULL;NULL;NULL;11_11_2020_8_55_32
167;0;5;queryStructureExp;bars;1;717;yellow;yellow;390;150;32;1;1;y7a6denlnqvwcgm;true;166.778;390;195;psychophysics;1383162;experimental_data;NULL;NULL;NULL;NULL;11_11_2020_8_55_32
167;0;5;queryStructureExp;query;1;404;yellow;yellow;390;150;49;1;1;y7a6denlnqvwcgm;true;166.805;390;195;psychophysics;1384571;experimental_data;NULL;NULL;NULL;NULL;11_11_2020_8_55_32
168;33;5;queryStructureExp;bars;7;4383;black;white,red,pink,green,orange,yellow,black;390,570,300,480,120,210,660;150,180,210,240,270,300,330;32;7;7;y7a6denlnqvwcgm;true;166.782;390;195;psychophysics;1390963;experimental_data;NULL;NULL;NULL;NULL;11_11_2020_8_55_32
168;33;5;queryStructureExp;query;7;1721;black;white,red,pink,green,orange,yellow,black;390,570,300,480,120,210,660;150,180,210,240,270,300,330;55;7;7;y7a6denlnqvwcgm;true;166.788;390;195;psychophysics;1393690;experimental_data;NULL;NULL;NULL;NULL;11_11_2020_8_55_32
169;31;5;queryStructureExp;bars;7;7210;orange;red,yellow,purple,black,blue,saddlebrown,orange;210,570,660,300,120,390,480;150,180,210,240,270,300,330;32;7;2;y7a6denlnqvwcgm;false;166.781;390;195;psychophysics;1402907;experimental_data;NULL;NULL;NULL;NULL;11_11_2020_8_55_32
169;31;5;queryStructureExp;query;7;3089;orange;red,yellow,purple,black,blue,saddlebrown,orange;210,570,660,300,120,390,480;150,180,210,240,270,300,330;50;7;2;y7a6denlnqvwcgm;false;16.678;390;195;psychophysics;1407002;experimental_data;NULL;NULL;NULL;NULL;11_11_2020_8_55_32
170;11;5;queryStructureExp;bars;3;1544;green;pink,black,green;480,300,390;210,240,270;32;3;3;y7a6denlnqvwcgm;true;16.678;390;195;psychophysics;1410554;experimental_data;NULL;NULL;NULL;NULL;11_11_2020_8_55_32
170;11;5;queryStructureExp;query;3;922;green;pink,black,green;480,300,390;210,240,270;51;3;3;y7a6denlnqvwcgm;true;16.678;390;195;psychophysics;1412483;experimental_data;NULL;NULL;NULL;NULL;11_11_2020_8_55_32
171;17;5;queryStructureExp;bars;4;2712;purple;black,orange,yellow,purple;480,390,210,300;210,240,270,300;32;4;4;y7a6denlnqvwcgm;true;166.782;390;195;psychophysics;1417203;experimental_data;NULL;NULL;NULL;NULL;11_11_2020_8_55_32
171;17;5;queryStructureExp;query;4;2064;purple;black,orange,yellow,purple;480,390,210,300;210,240,270,300;52;4;4;y7a6denlnqvwcgm;true;166.778;390;195;psychophysics;1420275;experimental_data;NULL;NULL;NULL;NULL;11_11_2020_8_55_32
172;7;5;queryStructureExp;bars;2;727;saddlebrown;yellow,saddlebrown;300,39;180,21;32;2;2;y7a6denlnqvwcgm;true;166.781;390;195;psychophysics;1423011;experimental_data;NULL;NULL;NULL;NULL;11_11_2020_8_55_32
172;7;5;queryStructureExp;query;2;690;saddlebrown;yellow,saddlebrown;300,39;180,21;50;2;2;y7a6denlnqvwcgm;true;166.784;390;195;psychophysics;1424707;experimental_data;NULL;NULL;NULL;NULL;11_11_2020_8_55_32
173;20;5;queryStructureExp;bars;5;3569;black;saddlebrown,pink,purple,white,black;480,570,390,210,300;180,210,240,270,300;32;5;5;y7a6denlnqvwcgm;true;166.785;390;195;psychophysics;1430285;experimental_data;NULL;NULL;NULL;NULL;11_11_2020_8_55_32
173;20;5;queryStructureExp;query;5;1807;black;saddlebrown,pink,purple,white,black;480,570,390,210,300;180,210,240,270,300;53;5;5;y7a6denlnqvwcgm;true;166.777;390;195;psychophysics;1433099;experimental_data;NULL;NULL;NULL;NULL;11_11_2020_8_55_32
174;6;5;queryStructureExp;bars;2;734;black;yellow,black;390,3;240,27;32;2;2;y7a6denlnqvwcgm;true;166.777;390;195;psychophysics;1435843;experimental_data;NULL;NULL;NULL;NULL;11_11_2020_8_55_32
174;6;5;queryStructureExp;query;2;1001;black;yellow,black;390,3;240,27;50;2;2;y7a6denlnqvwcgm;true;166.783;390;195;psychophysics;1437850;experimental_data;NULL;NULL;NULL;NULL;11_11_2020_8_55_32
175;10;5;queryStructureExp;bars;3;1634;red;green,yellow,red;480,390,300;180,210,240;32;3;3;y7a6denlnqvwcgm;true;166.783;390;195;psychophysics;1441492;experimental_data;NULL;NULL;NULL;NULL;11_11_2020_8_55_32
175;10;5;queryStructureExp;query;3;1032;red;green,yellow,red;480,390,300;180,210,240;51;3;3;y7a6denlnqvwcgm;true;166.779;390;195;psychophysics;1443530;experimental_data;NULL;NULL;NULL;NULL;11_11_2020_8_55_32
NULL;NULL;0;NULL;end_of_block;NULL;1451;NULL;NULL;NULL;NULL;32;NULL;NULL;y7a6denlnqvwcgm;NULL;NULL;NULL;NULL;html-keyboard-response;1445987;experimental_data;1446002;24. Jan;0.942857;NULL;11_11_2020_8_55_32
176;0;6;queryStructureCont;bars;1;1490;red;red;390;150;32;1;1;y7a6denlnqvwcgm;true;166.781;390;195;psychophysics;1448482;experimental_data;NULL;NULL;NULL;NULL;11_11_2020_8_55_32
176;0;6;queryStructureCont;query;1;355;red;red;390;150;49;1;1;y7a6denlnqvwcgm;true;166.781;390;195;psychophysics;1449842;experimental_data;NULL;NULL;NULL;NULL;11_11_2020_8_55_32
177;3;6;queryStructureCont;bars;1;631;saddlebrown;saddlebrown;390;270;32;1;1;y7a6denlnqvwcgm;true;166.771;390;195;psychophysics;1452484;experimental_data;NULL;NULL;NULL;NULL;11_11_2020_8_55_32
177;3;6;queryStructureCont;query;1;464;saddlebrown;saddlebrown;390;270;49;1;1;y7a6denlnqvwcgm;true;166.784;390;195;psychophysics;1453954;experimental_data;NULL;NULL;NULL;NULL;11_11_2020_8_55_32
178;20;6;queryStructureCont;bars;5;7828;pink;orange,black,white,yellow,pink;210,300,390,480,570;180,210,240,270,300;32;5;5;y7a6denlnqvwcgm;true;16.678;390;195;psychophysics;1463795;experimental_data;NULL;NULL;NULL;NULL;11_11_2020_8_55_32
178;20;6;queryStructureCont;query;5;2297;pink;orange,black,white,yellow,pink;210,300,390,480,570;180,210,240,270,300;53;5;5;y7a6denlnqvwcgm;true;16.678;390;195;psychophysics;1467098;experimental_data;NULL;NULL;NULL;NULL;11_11_2020_8_55_32
179;4;6;queryStructureCont;bars;1;680;orange;orange;390;180;32;1;1;y7a6denlnqvwcgm;true;16.677;390;195;psychophysics;1469786;experimental_data;NULL;NULL;NULL;NULL;11_11_2020_8_55_32
179;4;6;queryStructureCont;query;1;346;orange;orange;390;180;49;1;1;y7a6denlnqvwcgm;true;166.803;390;195;psychophysics;1471138;experimental_data;NULL;NULL;NULL;NULL;11_11_2020_8_55_32
180;16;6;queryStructureCont;bars;4;2616;orange;red,blue,yellow,orange;210,300,390,480;150,180,210,240;32;4;4;y7a6denlnqvwcgm;true;16.678;390;195;psychophysics;1475763;experimental_data;NULL;NULL;NULL;NULL;11_11_2020_8_55_32
