Trial_index;TrialID;Block;Conditions;Stimulus_type;Number_of_Bars;rt;Query_color;color_sequence;position_sequence;heights;key_press;Correct_Position;response_position;subject_id;correct;avg_frame_time;center_x;center_y;trial_type;time_elapsed;TrialType;timeMs;timeMin;score;reward;date
1;6;1;noStructureExp;bars;7;4501;orange;orange,white,red,saddlebrown,green,pink,purple;390,210,480,120,570,300,660;150,180,210,240,270,300,330;32;1;4;g71pfhvzre6vm0h;false;16.724;390;195;psychophysics;137765;practice_trials;NULL;NULL;NULL;NULL;14_11_2020_14_7_36
1;6;1;noStructureExp;query;7;3480;orange;orange,white,red,saddlebrown,green,pink,purple;390,210,480,120,570,300,660;150,180,210,240,270,300,330;52;1;4;g71pfhvzre6vm0h;false;167.433;390;195;psychophysics;142253;practice_trial;NULL;NULL;NULL;NULL;14_11_2020_14_7_36
2;1;1;noStructureExp;bars;2;951;red;blue,red;390,3;180,21;32;2;3;g71pfhvzre6vm0h;false;166.613;390;195;psychophysics;145212;practice_trials;NULL;NULL;NULL;NULL;14_11_2020_14_7_36
2;1;1;noStructureExp;query;2;5859;red;blue,red;390,3;180,21;51;2;3;g71pfhvzre6vm0h;false;166.624;390;195;psychophysics;152076;practice_trial;NULL;NULL;NULL;NULL;14_11_2020_14_7_36
3;0;1;noStructureExp;bars;1;9921;black;black;390;330;32;1;2;g71pfhvzre6vm0h;false;166.623;390;195;psychophysics;164005;practice_trials;NULL;NULL;NULL;NULL;14_11_2020_14_7_36
3;0;1;noStructureExp;query;1;291;black;black;390;330;50;1;2;g71pfhvzre6vm0h;false;166.605;390;195;psychophysics;165301;practice_trial;NULL;NULL;NULL;NULL;14_11_2020_14_7_36
4;3;1;noStructureExp;bars;4;911;blue;black,red,saddlebrown,blue;390,480,210,300;210,240,270,300;32;4;-16;g71pfhvzre6vm0h;invalid response;16.661;390;195;psychophysics;168220;practice_trials;NULL;NULL;NULL;NULL;14_11_2020_14_7_36
4;3;1;noStructureExp;query;4;2276;blue;black,red,saddlebrown,blue;390,480,210,300;210,240,270,300;32;4;-16;g71pfhvzre6vm0h;invalid response;166.624;390;195;psychophysics;171501;practice_trial;NULL;NULL;NULL;NULL;14_11_2020_14_7_36
5;2;1;noStructureExp;bars;3;4408;yellow;yellow,pink,red;390,300,480;210,240,270;32;1;2;g71pfhvzre6vm0h;false;166.621;390;195;psychophysics;181916;practice_trials;NULL;NULL;NULL;NULL;14_11_2020_14_7_36
5;2;1;noStructureExp;query;3;882;yellow;yellow,pink,red;390,300,480;210,240,270;50;1;2;g71pfhvzre6vm0h;false;166.608;390;195;psychophysics;183803;practice_trial;NULL;NULL;NULL;NULL;14_11_2020_14_7_36
6;5;1;noStructureExp;bars;6;1546;blue;white,blue,orange,yellow,purple,saddlebrown;480,570,120,300,390,210;150,180,210,240,270,300;32;2;2;g71pfhvzre6vm0h;true;16.662;390;195;psychophysics;187358;practice_trials;NULL;NULL;NULL;NULL;14_11_2020_14_7_36
6;5;1;noStructureExp;query;6;2694;blue;white,blue,orange,yellow,purple,saddlebrown;480,570,120,300,390,210;150,180,210,240,270,300;50;2;2;g71pfhvzre6vm0h;true;166.629;390;195;psychophysics;191060;practice_trial;NULL;NULL;NULL;NULL;14_11_2020_14_7_36
7;4;1;noStructureExp;bars;5;801;orange;orange,white,yellow,pink,green;480,300,390,570,210;180,210,240,270,300;32;1;4;g71pfhvzre6vm0h;false;166.636;390;195;psychophysics;193867;practice_trials;NULL;NULL;NULL;NULL;14_11_2020_14_7_36
7;4;1;noStructureExp;query;5;4677;orange;orange,white,yellow,pink,green;480,300,390,570,210;180,210,240,270,300;52;1;4;g71pfhvzre6vm0h;false;166.619;390;195;psychophysics;199549;practice_trial;NULL;NULL;NULL;NULL;14_11_2020_14_7_36
8;1;2;noStructureCont;bars;2;2240;yellow;orange,yellow;300,39;180,21;32;2;3;g71pfhvzre6vm0h;false;166.622;390;195;psychophysics;206451;practice_trials;NULL;NULL;NULL;NULL;14_11_2020_14_7_36
8;1;2;noStructureCont;query;2;3282;yellow;orange,yellow;300,39;180,21;51;2;3;g71pfhvzre6vm0h;false;16.662;390;195;psychophysics;210742;practice_trial;NULL;NULL;NULL;NULL;14_11_2020_14_7_36
9;0;2;noStructureCont;bars;1;854;black;black;390;330;32;1;5;g71pfhvzre6vm0h;false;166.621;390;195;psychophysics;213604;practice_trials;NULL;NULL;NULL;NULL;14_11_2020_14_7_36
9;0;2;noStructureCont;query;1;2431;black;black;390;330;53;1;5;g71pfhvzre6vm0h;false;166.618;390;195;psychophysics;217043;practice_trial;NULL;NULL;NULL;NULL;14_11_2020_14_7_36
10;3;2;noStructureCont;bars;4;672;orange;green,white,black,orange;210,300,390,480;210,240,270,300;32;4;4;g71pfhvzre6vm0h;true;166.631;390;195;psychophysics;219723;practice_trials;NULL;NULL;NULL;NULL;14_11_2020_14_7_36
10;3;2;noStructureCont;query;4;2194;orange;green,white,black,orange;210,300,390,480;210,240,270,300;52;4;4;g71pfhvzre6vm0h;true;166.619;390;195;psychophysics;222924;practice_trial;NULL;NULL;NULL;NULL;14_11_2020_14_7_36
11;4;2;noStructureCont;bars;5;1841;purple;purple,white,orange,black,pink;210,300,390,480,570;180,210,240,270,300;32;1;2;g71pfhvzre6vm0h;false;166.622;390;195;psychophysics;226771;practice_trials;NULL;NULL;NULL;NULL;14_11_2020_14_7_36
11;4;2;noStructureCont;query;5;1780;purple;purple,white,orange,black,pink;210,300,390,480,570;180,210,240,270,300;50;1;2;g71pfhvzre6vm0h;false;166.627;390;195;psychophysics;229555;practice_trial;NULL;NULL;NULL;NULL;14_11_2020_14_7_36
12;6;2;noStructureCont;bars;7;224;blue;blue,orange,white,pink,saddlebrown,purple,red;120,210,300,390,480,570,660;150,180,210,240,270,300,330;32;1;2;g71pfhvzre6vm0h;false;166.746;390;195;psychophysics;231787;practice_trials;NULL;NULL;NULL;NULL;14_11_2020_14_7_36
12;6;2;noStructureCont;query;7;1380;blue;blue,orange,white,pink,saddlebrown,purple,red;120,210,300,390,480,570,660;150,180,210,240,270,300,330;50;1;2;g71pfhvzre6vm0h;false;166.623;390;195;psychophysics;234171;practice_trial;NULL;NULL;NULL;NULL;14_11_2020_14_7_36
13;2;2;noStructureCont;bars;3;560;yellow;yellow,orange,black;300,390,480;210,240,270;32;1;6;g71pfhvzre6vm0h;false;166.615;390;195;psychophysics;236738;practice_trials;NULL;NULL;NULL;NULL;14_11_2020_14_7_36
13;2;2;noStructureCont;query;3;3476;yellow;yellow,orange,black;300,390,480;210,240,270;54;1;6;g71pfhvzre6vm0h;false;166.625;390;195;psychophysics;241227;practice_trial;NULL;NULL;NULL;NULL;14_11_2020_14_7_36
14;5;2;noStructureCont;bars;6;646;purple;red,purple,saddlebrown,green,black,orange;120,210,300,390,480,570;150,180,210,240,270,300;32;2;1;g71pfhvzre6vm0h;false;166.629;390;195;psychophysics;243883;practice_trials;NULL;NULL;NULL;NULL;14_11_2020_14_7_36
14;5;2;noStructureCont;query;6;2244;purple;red,purple,saddlebrown,green,black,orange;120,210,300,390,480,570;150,180,210,240,270,300;49;2;1;g71pfhvzre6vm0h;false;166.631;390;195;psychophysics;247133;practice_trial;NULL;NULL;NULL;NULL;14_11_2020_14_7_36
NULL;NULL;NULL;NULL;end_of_practice;NULL;1631;NULL;NULL;NULL;NULL;32;NULL;NULL;g71pfhvzre6vm0h;NULL;NULL;NULL;NULL;html-keyboard-response;249771;practice_trials;249776;416.293;0.142857;NULL;14_11_2020_14_7_36
1;4;1;noStructureExp;bars;5;9318;blue;white,blue,saddlebrown,pink,purple;480,300,570,390,210;150,180,210,240,270;32;2;2;ddd9z40nfc89n9e;true;167.248;390;195;psychophysics;187949;practice_trials;NULL;NULL;NULL;NULL;14_11_2020_14_11_45
1;4;1;noStructureExp;query;5;1223;blue;white,blue,saddlebrown,pink,purple;480,300,570,390,210;150,180,210,240,270;50;2;2;ddd9z40nfc89n9e;true;167.255;390;195;psychophysics;190178;practice_trial;NULL;NULL;NULL;NULL;14_11_2020_14_11_45
2;3;1;noStructureExp;bars;4;7147;yellow;pink,orange,yellow,red;210,480,300,390;240,270,300,330;32;3;4;ddd9z40nfc89n9e;false;167.251;390;195;psychophysics;199334;practice_trials;NULL;NULL;NULL;NULL;14_11_2020_14_11_45
2;3;1;noStructureExp;query;4;1358;yellow;pink,orange,yellow,red;210,480,300,390;240,270,300,330;52;3;4;ddd9z40nfc89n9e;false;167.242;390;195;psychophysics;201698;practice_trial;NULL;NULL;NULL;NULL;14_11_2020_14_11_45
3;6;1;noStructureExp;bars;7;8122;black;red,white,green,purple,orange,black,saddlebrown;300,210,480,570,660,120,390;150,180,210,240,270,300,330;32;6;1;ddd9z40nfc89n9e;false;167.251;390;195;psychophysics;211828;practice_trials;NULL;NULL;NULL;NULL;14_11_2020_14_11_45
3;6;1;noStructureExp;query;7;1328;black;red,white,green,purple,orange,black,saddlebrown;300,210,480,570,660,120,390;150,180,210,240,270,300,330;49;6;1;ddd9z40nfc89n9e;false;167.257;390;195;psychophysics;214163;practice_trial;NULL;NULL;NULL;NULL;14_11_2020_14_11_45
4;2;1;noStructureExp;bars;3;5408;black;black,pink,orange;390,300,480;270,300,330;32;1;2;ddd9z40nfc89n9e;false;167.767;390;195;psychophysics;221579;practice_trials;NULL;NULL;NULL;NULL;14_11_2020_14_11_45
4;2;1;noStructureExp;query;3;1043;black;black,pink,orange;390,300,480;270,300,330;50;1;2;ddd9z40nfc89n9e;false;167.248;390;195;psychophysics;223627;practice_trial;NULL;NULL;NULL;NULL;14_11_2020_14_11_45
5;5;1;noStructureExp;bars;6;12618;black;red,black,green,white,saddlebrown,yellow;570,390,210,480,300,120;180,210,240,270,300,330;32;2;3;ddd9z40nfc89n9e;false;167.249;390;195;psychophysics;238254;practice_trials;NULL;NULL;NULL;NULL;14_11_2020_14_11_45
5;5;1;noStructureExp;query;6;1201;black;red,black,green,white,saddlebrown,yellow;570,390,210,480,300,120;180,210,240,270,300,330;51;2;3;ddd9z40nfc89n9e;false;167.221;390;195;psychophysics;240460;practice_trial;NULL;NULL;NULL;NULL;14_11_2020_14_11_45
6;1;1;noStructureExp;bars;2;2092;purple;purple,white;300,39;300,33;32;1;1;ddd9z40nfc89n9e;true;167.241;390;195;psychophysics;244562;practice_trials;NULL;NULL;NULL;NULL;14_11_2020_14_11_45
6;1;1;noStructureExp;query;2;859;purple;purple,white;300,39;300,33;49;1;1;ddd9z40nfc89n9e;true;167.248;390;195;psychophysics;246426;practice_trial;NULL;NULL;NULL;NULL;14_11_2020_14_11_45
7;0;1;noStructureExp;bars;1;4632;orange;orange;390;330;32;1;1;ddd9z40nfc89n9e;true;363.467;390;195;psychophysics;253066;practice_trials;NULL;NULL;NULL;NULL;14_11_2020_14_11_45
7;0;1;noStructureExp;query;1;483;orange;orange;390;330;49;1;1;ddd9z40nfc89n9e;true;167.247;390;195;psychophysics;254554;practice_trial;NULL;NULL;NULL;NULL;14_11_2020_14_11_45
8;4;2;noStructureCont;bars;5;3447;saddlebrown;orange,saddlebrown,white,blue,black;210,300,390,480,570;150,180,210,240,270;32;2;2;ddd9z40nfc89n9e;true;167.253;390;195;psychophysics;261369;practice_trials;NULL;NULL;NULL;NULL;14_11_2020_14_11_45
8;4;2;noStructureCont;query;5;978;saddlebrown;orange,saddlebrown,white,blue,black;210,300,390,480,570;150,180,210,240,270;50;2;2;ddd9z40nfc89n9e;true;167.257;390;195;psychophysics;263355;practice_trial;NULL;NULL;NULL;NULL;14_11_2020_14_11_45
9;5;2;noStructureCont;bars;6;9084;black;orange,black,purple,saddlebrown,green,yellow;120,210,300,390,480,570;180,210,240,270,300,330;32;2;2;ddd9z40nfc89n9e;true;167.249;390;195;psychophysics;274451;practice_trials;NULL;NULL;NULL;NULL;14_11_2020_14_11_45
9;5;2;noStructureCont;query;6;2034;black;orange,black,purple,saddlebrown,green,yellow;120,210,300,390,480,570;180,210,240,270,300,330;50;2;2;ddd9z40nfc89n9e;true;167.262;390;195;psychophysics;277491;practice_trial;NULL;NULL;NULL;NULL;14_11_2020_14_11_45
10;6;2;noStructureCont;bars;7;6359;pink;black,purple,blue,yellow,red,pink,orange;120,210,300,390,480,570,660;150,180,210,240,270,300,330;32;6;3;ddd9z40nfc89n9e;false;167.253;390;195;psychophysics;285859;practice_trials;NULL;NULL;NULL;NULL;14_11_2020_14_11_45
10;6;2;noStructureCont;query;7;1145;pink;black,purple,blue,yellow,red,pink,orange;120,210,300,390,480,570,660;150,180,210,240,270,300,330;51;6;3;ddd9z40nfc89n9e;false;167.251;390;195;psychophysics;288010;practice_trial;NULL;NULL;NULL;NULL;14_11_2020_14_11_45
11;3;2;noStructureCont;bars;4;5031;red;green,saddlebrown,red,yellow;210,300,390,480;240,270,300,330;32;3;3;ddd9z40nfc89n9e;true;167.243;390;195;psychophysics;295051;practice_trials;NULL;NULL;NULL;NULL;14_11_2020_14_11_45
11;3;2;noStructureCont;query;4;1112;red;green,saddlebrown,red,yellow;210,300,390,480;240,270,300,330;51;3;3;ddd9z40nfc89n9e;true;167.253;390;195;psychophysics;297171;practice_trial;NULL;NULL;NULL;NULL;14_11_2020_14_11_45
12;0;2;noStructureCont;bars;1;939;white;white;390;330;32;1;4;ddd9z40nfc89n9e;false;167.264;390;195;psychophysics;300122;practice_trials;NULL;NULL;NULL;NULL;14_11_2020_14_11_45
12;0;2;noStructureCont;query;1;1027;white;white;390;330;52;1;4;ddd9z40nfc89n9e;false;167.251;390;195;psychophysics;302154;practice_trial;NULL;NULL;NULL;NULL;14_11_2020_14_11_45
13;1;2;noStructureCont;bars;2;2593;black;black,red;300,39;300,33;32;1;1;ddd9z40nfc89n9e;true;167.248;390;195;psychophysics;306762;practice_trials;NULL;NULL;NULL;NULL;14_11_2020_14_11_45
13;1;2;noStructureCont;query;2;644;black;black,red;300,39;300,33;49;1;1;ddd9z40nfc89n9e;true;16.726;390;195;psychophysics;308411;practice_trial;NULL;NULL;NULL;NULL;14_11_2020_14_11_45
14;2;2;noStructureCont;bars;3;9076;pink;pink,black,saddlebrown;300,390,480;270,300,330;32;1;1;ddd9z40nfc89n9e;true;232.266;390;195;psychophysics;319505;practice_trials;NULL;NULL;NULL;NULL;14_11_2020_14_11_45
14;2;2;noStructureCont;query;3;474;pink;pink,black,saddlebrown;300,390,480;270,300,330;49;1;1;ddd9z40nfc89n9e;true;167.294;390;195;psychophysics;320986;practice_trial;NULL;NULL;NULL;NULL;14_11_2020_14_11_45
NULL;NULL;NULL;NULL;end_of_practice;NULL;937;NULL;NULL;NULL;NULL;32;NULL;NULL;ddd9z40nfc89n9e;NULL;NULL;NULL;NULL;html-keyboard-response;322929;practice_trials;322936;538.227;0.571429;NULL;14_11_2020_14_11_45
1;5;1;noStructureExp;bars;6;50797;black;purple,orange,black,red,white,yellow;300,390,570,480,120,210;150,180,210,240,270,300;32;3;-30;fo7rrkaarq1yxbk;invalid response;19.767;390;195;psychophysics;357852;practice_trials;NULL;NULL;NULL;NULL;14_11_2020_14_10_13
1;5;1;noStructureExp;query;6;4897;black;purple,orange,black,red,white,yellow;300,390,570,480,120,210;150,180,210,240,270,300;18;3;-30;fo7rrkaarq1yxbk;invalid response;166.657;390;195;psychophysics;363768;practice_trial;NULL;NULL;NULL;NULL;14_11_2020_14_10_13
2;3;1;noStructureExp;bars;4;13714;yellow;white,blue,black,yellow;390,210,480,300;240,270,300,330;32;4;3;fo7rrkaarq1yxbk;false;166.662;390;195;psychophysics;385278;practice_trials;NULL;NULL;NULL;NULL;14_11_2020_14_10_13
2;3;1;noStructureExp;query;4;2216;yellow;white,blue,black,yellow;390,210,480,300;240,270,300,330;51;4;3;fo7rrkaarq1yxbk;false;166.659;390;195;psychophysics;388518;practice_trial;NULL;NULL;NULL;NULL;14_11_2020_14_10_13
3;1;1;noStructureExp;bars;2;6236;black;pink,black;300,39;180,21;32;2;2;fo7rrkaarq1yxbk;true;166.657;390;195;psychophysics;396783;practice_trials;NULL;NULL;NULL;NULL;14_11_2020_14_10_13
3;1;1;noStructureExp;query;2;2102;black;pink,black;300,39;180,21;50;2;2;fo7rrkaarq1yxbk;true;166.666;390;195;psychophysics;399901;practice_trial;NULL;NULL;NULL;NULL;14_11_2020_14_10_13
4;0;1;noStructureExp;bars;1;3010;white;white;390;150;32;1;1;fo7rrkaarq1yxbk;true;166.663;390;195;psychophysics;404934;practice_trials;NULL;NULL;NULL;NULL;14_11_2020_14_10_13
4;0;1;noStructureExp;query;1;1685;white;white;390;150;49;1;1;fo7rrkaarq1yxbk;true;166.672;390;195;psychophysics;407636;practice_trial;NULL;NULL;NULL;NULL;14_11_2020_14_10_13
5;6;1;noStructureExp;bars;7;13609;purple;pink,yellow,black,saddlebrown,purple,green,blue;390,210,660,120,480,300,570;150,180,210,240,270,300,330;32;5;2;fo7rrkaarq1yxbk;false;166.661;390;195;psychophysics;423296;practice_trials;NULL;NULL;NULL;NULL;14_11_2020_14_10_13
5;6;1;noStructureExp;query;7;3458;purple;pink,yellow,black,saddlebrown,purple,green,blue;390,210,660,120,480,300,570;150,180,210,240,270,300,330;50;5;2;fo7rrkaarq1yxbk;false;166.669;390;195;psychophysics;427776;practice_trial;NULL;NULL;NULL;NULL;14_11_2020_14_10_13
6;4;1;noStructureExp;bars;5;10462;orange;blue,red,pink,black,orange;480,570,210,390,300;180,210,240,270,300;32;5;3;fo7rrkaarq1yxbk;false;166.657;390;195;psychophysics;440257;practice_trials;NULL;NULL;NULL;NULL;14_11_2020_14_10_13
6;4;1;noStructureExp;query;5;2580;orange;blue,red,pink,black,orange;480,570,210,390,300;180,210,240,270,300;51;5;3;fo7rrkaarq1yxbk;false;166.677;390;195;psychophysics;443852;practice_trial;NULL;NULL;NULL;NULL;14_11_2020_14_10_13
7;2;1;noStructureExp;bars;3;11586;white;blue,white,purple;300,480,390;270,300,330;32;2;2;fo7rrkaarq1yxbk;true;166.658;390;195;psychophysics;457464;practice_trials;NULL;NULL;NULL;NULL;14_11_2020_14_10_13
7;2;1;noStructureExp;query;3;1713;white;blue,white,purple;300,480,390;270,300,330;50;2;2;fo7rrkaarq1yxbk;true;166.669;390;195;psychophysics;460186;practice_trial;NULL;NULL;NULL;NULL;14_11_2020_14_10_13
8;3;2;noStructureCont;bars;4;10126;blue;yellow,orange,green,blue;210,300,390,480;240,270,300,330;32;4;4;fo7rrkaarq1yxbk;true;16.666;390;195;psychophysics;476527;practice_trials;NULL;NULL;NULL;NULL;14_11_2020_14_10_13
8;3;2;noStructureCont;query;4;1704;blue;yellow,orange,green,blue;210,300,390,480;240,270,300,330;52;4;4;fo7rrkaarq1yxbk;true;166.673;390;195;psychophysics;479249;practice_trial;NULL;NULL;NULL;NULL;14_11_2020_14_10_13
9;5;2;noStructureCont;bars;6;8678;white;orange,pink,white,red,purple,blue;120,210,300,390,480,570;150,180,210,240,270,300;32;3;2;fo7rrkaarq1yxbk;false;166.662;390;195;psychophysics;489953;practice_trials;NULL;NULL;NULL;NULL;14_11_2020_14_10_13
9;5;2;noStructureCont;query;6;1544;white;orange,pink,white,red,purple,blue;120,210,300,390,480,570;150,180,210,240,270,300;50;3;2;fo7rrkaarq1yxbk;false;16.664;390;195;psychophysics;492508;practice_trial;NULL;NULL;NULL;NULL;14_11_2020_14_10_13
10;6;2;noStructureCont;bars;7;30890;green;pink,yellow,purple,black,green,red,blue;120,210,300,390,480,570,660;150,180,210,240,270,300,330;32;5;5;fo7rrkaarq1yxbk;true;166.659;390;195;psychophysics;525419;practice_trials;NULL;NULL;NULL;NULL;14_11_2020_14_10_13
10;6;2;noStructureCont;query;7;2842;green;pink,yellow,purple,black,green,red,blue;120,210,300,390,480,570,660;150,180,210,240,270,300,330;53;5;5;fo7rrkaarq1yxbk;true;166.659;390;195;psychophysics;529281;practice_trial;NULL;NULL;NULL;NULL;14_11_2020_14_10_13
11;2;2;noStructureCont;bars;3;10286;white;orange,white,pink;300,390,480;270,300,330;32;2;1;fo7rrkaarq1yxbk;false;166.663;390;195;psychophysics;541587;practice_trials;NULL;NULL;NULL;NULL;14_11_2020_14_10_13
11;2;2;noStructureCont;query;3;3277;white;orange,white,pink;300,390,480;270,300,330;49;2;1;fo7rrkaarq1yxbk;false;166.651;390;195;psychophysics;545886;practice_trial;NULL;NULL;NULL;NULL;14_11_2020_14_10_13
12;0;2;noStructureCont;bars;1;3505;saddlebrown;saddlebrown;390;150;32;1;1;fo7rrkaarq1yxbk;true;166.659;390;195;psychophysics;551410;practice_trials;NULL;NULL;NULL;NULL;14_11_2020_14_10_13
12;0;2;noStructureCont;query;1;566;saddlebrown;saddlebrown;390;150;49;1;1;fo7rrkaarq1yxbk;true;166.673;390;195;psychophysics;552990;practice_trial;NULL;NULL;NULL;NULL;14_11_2020_14_10_13
13;4;2;noStructureCont;bars;5;6365;orange;white,purple,blue,pink,orange;210,300,390,480,570;180,210,240,270,300;32;5;5;fo7rrkaarq1yxbk;true;166.662;390;195;psychophysics;561375;practice_trials;NULL;NULL;NULL;NULL;14_11_2020_14_10_13
13;4;2;noStructureCont;query;5;2356;orange;white,purple,blue,pink,orange;210,300,390,480,570;180,210,240,270,300;53;5;5;fo7rrkaarq1yxbk;true;16.665;390;195;psychophysics;564744;practice_trial;NULL;NULL;NULL;NULL;14_11_2020_14_10_13
14;1;2;noStructureCont;bars;2;2534;black;purple,black;300,39;180,21;32;2;2;fo7rrkaarq1yxbk;true;166.678;390;195;psychophysics;569300;practice_trials;NULL;NULL;NULL;NULL;14_11_2020_14_10_13
14;1;2;noStructureCont;query;2;1394;black;purple,black;300,39;180,21;50;2;2;fo7rrkaarq1yxbk;true;166.678;390;195;psychophysics;571716;practice_trial;NULL;NULL;NULL;NULL;14_11_2020_14_10_13
NULL;NULL;NULL;NULL;end_of_practice;NULL;7860;NULL;NULL;NULL;NULL;32;NULL;NULL;fo7rrkaarq1yxbk;NULL;NULL;NULL;NULL;html-keyboard-response;580588;practice_trials;580594;967.657;0.571429;NULL;14_11_2020_14_10_13
1;2;1;noStructureExp;bars;3;4012;pink;black,pink,green;480,390,300;240,270,300;32;2;2;qbzttsocef3cc2y;true;166.348;390;195;psychophysics;329797;practice_trials;NULL;NULL;NULL;NULL;14_11_2020_4_7_15
1;2;1;noStructureExp;query;3;2089;pink;black,pink,green;480,390,300;240,270,300;50;2;2;qbzttsocef3cc2y;true;166.314;390;195;psychophysics;332907;practice_trial;NULL;NULL;NULL;NULL;14_11_2020_4_7_15
2;3;1;noStructureExp;bars;4;7460;yellow;purple,pink,white,yellow;300,390,480,210;240,270,300,330;32;4;4;qbzttsocef3cc2y;true;166.338;390;195;psychophysics;342385;practice_trials;NULL;NULL;NULL;NULL;14_11_2020_4_7_15
2;3;1;noStructureExp;query;4;1808;yellow;purple,pink,white,yellow;300,390,480,210;240,270,300,330;52;4;4;qbzttsocef3cc2y;true;166.312;390;195;psychophysics;345210;practice_trial;NULL;NULL;NULL;NULL;14_11_2020_4_7_15
3;4;1;noStructureExp;bars;5;9413;black;black,green,saddlebrown,white,blue;210,300,570,390,480;180,210,240,270,300;32;1;1;qbzttsocef3cc2y;true;166.337;390;195;psychophysics;356643;practice_trials;NULL;NULL;NULL;NULL;14_11_2020_4_7_15
3;4;1;noStructureExp;query;5;1349;black;black,green,saddlebrown,white,blue;210,300,570,390,480;180,210,240,270,300;49;1;1;qbzttsocef3cc2y;true;166.323;390;195;psychophysics;359008;practice_trial;NULL;NULL;NULL;NULL;14_11_2020_4_7_15
4;5;1;noStructureExp;bars;6;10443;white;red,green,white,orange,black,pink;570,300,210,120,480,390;150,180,210,240,270,300;32;3;3;qbzttsocef3cc2y;true;16.633;390;195;psychophysics;371466;practice_trials;NULL;NULL;NULL;NULL;14_11_2020_4_7_15
4;5;1;noStructureExp;query;6;1758;white;red,green,white,orange,black,pink;570,300,210,120,480,390;150,180,210,240,270,300;51;3;3;qbzttsocef3cc2y;true;16.635;390;195;psychophysics;374240;practice_trial;NULL;NULL;NULL;NULL;14_11_2020_4_7_15
5;0;1;noStructureExp;bars;1;1081;green;green;390;300;32;1;1;qbzttsocef3cc2y;true;166.424;390;195;psychophysics;377335;practice_trials;NULL;NULL;NULL;NULL;14_11_2020_4_7_15
5;0;1;noStructureExp;query;1;721;green;green;390;300;49;1;1;qbzttsocef3cc2y;true;166.373;390;195;psychophysics;379072;practice_trial;NULL;NULL;NULL;NULL;14_11_2020_4_7_15
6;1;1;noStructureExp;bars;2;1350;purple;blue,purple;390,3;240,27;32;2;2;qbzttsocef3cc2y;true;166.327;390;195;psychophysics;382436;practice_trials;NULL;NULL;NULL;NULL;14_11_2020_4_7_15
6;1;1;noStructureExp;query;2;962;purple;blue,purple;390,3;240,27;50;2;2;qbzttsocef3cc2y;true;16.631;390;195;psychophysics;384408;practice_trial;NULL;NULL;NULL;NULL;14_11_2020_4_7_15
7;6;1;noStructureExp;bars;7;11148;blue;yellow,orange,saddlebrown,blue,black,pink,green;210,300,570,120,660,480,390;150,180,210,240,270,300,330;32;4;3;qbzttsocef3cc2y;false;166.334;390;195;psychophysics;397571;practice_trials;NULL;NULL;NULL;NULL;14_11_2020_4_7_15
7;6;1;noStructureExp;query;7;1410;blue;yellow,orange,saddlebrown,blue,black,pink,green;210,300,570,120,660,480,390;150,180,210,240,270,300,330;51;4;3;qbzttsocef3cc2y;false;166.287;390;195;psychophysics;399992;practice_trial;NULL;NULL;NULL;NULL;14_11_2020_4_7_15
8;6;2;noStructureCont;bars;7;8002;blue;green,yellow,white,blue,pink,black,saddlebrown;120,210,300,390,480,570,660;150,180,210,240,270,300,330;32;4;4;qbzttsocef3cc2y;true;166.327;390;195;psychophysics;426823;practice_trials;NULL;NULL;NULL;NULL;14_11_2020_4_7_15
8;6;2;noStructureCont;query;7;1876;blue;green,yellow,white,blue,pink,black,saddlebrown;120,210,300,390,480,570,660;150,180,210,240,270,300,330;52;4;4;qbzttsocef3cc2y;true;166.312;390;195;psychophysics;429714;practice_trial;NULL;NULL;NULL;NULL;14_11_2020_4_7_15
9;4;2;noStructureCont;bars;5;3719;saddlebrown;saddlebrown,orange,yellow,black,green;210,300,390,480,570;180,210,240,270,300;32;1;1;qbzttsocef3cc2y;true;166.327;390;195;psychophysics;435448;practice_trials;NULL;NULL;NULL;NULL;14_11_2020_4_7_15
9;4;2;noStructureCont;query;5;901;saddlebrown;saddlebrown,orange,yellow,black,green;210,300,390,480,570;180,210,240,270,300;49;1;1;qbzttsocef3cc2y;true;166.334;390;195;psychophysics;437367;practice_trial;NULL;NULL;NULL;NULL;14_11_2020_4_7_15
10;2;2;noStructureCont;bars;3;2245;blue;black,blue,white;300,390,480;240,270,300;32;2;2;qbzttsocef3cc2y;true;16.632;390;195;psychophysics;441628;practice_trials;NULL;NULL;NULL;NULL;14_11_2020_4_7_15
10;2;2;noStructureCont;query;3;720;blue;black,blue,white;300,390,480;240,270,300;50;2;2;qbzttsocef3cc2y;true;166.281;390;195;psychophysics;443360;practice_trial;NULL;NULL;NULL;NULL;14_11_2020_4_7_15
11;5;2;noStructureCont;bars;6;6294;saddlebrown;white,pink,saddlebrown,black,orange,green;120,210,300,390,480,570;150,180,210,240,270,300;32;3;3;qbzttsocef3cc2y;true;166.336;390;195;psychophysics;451668;practice_trials;NULL;NULL;NULL;NULL;14_11_2020_4_7_15
11;5;2;noStructureCont;query;6;1690;saddlebrown;white,pink,saddlebrown,black,orange,green;120,210,300,390,480,570;150,180,210,240,270,300;51;3;3;qbzttsocef3cc2y;true;166.344;390;195;psychophysics;454368;practice_trial;NULL;NULL;NULL;NULL;14_11_2020_4_7_15
12;1;2;noStructureCont;bars;2;1594;white;orange,white;300,39;240,27;32;2;2;qbzttsocef3cc2y;true;16.629;390;195;psychophysics;457977;practice_trials;NULL;NULL;NULL;NULL;14_11_2020_4_7_15
12;1;2;noStructureCont;query;2;817;white;orange,white;300,39;240,27;50;2;2;qbzttsocef3cc2y;true;166.344;390;195;psychophysics;459808;practice_trial;NULL;NULL;NULL;NULL;14_11_2020_4_7_15
13;3;2;noStructureCont;bars;4;4108;black;blue,orange,purple,black;210,300,390,480;240,270,300,330;32;4;4;qbzttsocef3cc2y;true;166.345;390;195;psychophysics;465931;practice_trials;NULL;NULL;NULL;NULL;14_11_2020_4_7_15
13;3;2;noStructureCont;query;4;1064;black;blue,orange,purple,black;210,300,390,480;240,270,300,330;52;4;4;qbzttsocef3cc2y;true;168.959;390;195;psychophysics;468008;practice_trial;NULL;NULL;NULL;NULL;14_11_2020_4_7_15
14;0;2;noStructureCont;bars;1;887;purple;purple;390;300;32;1;1;qbzttsocef3cc2y;true;166.247;390;195;psychophysics;470913;practice_trials;NULL;NULL;NULL;NULL;14_11_2020_4_7_15
14;0;2;noStructureCont;query;1;782;purple;purple;390;300;49;1;1;qbzttsocef3cc2y;true;166.335;390;195;psychophysics;472704;practice_trial;NULL;NULL;NULL;NULL;14_11_2020_4_7_15
NULL;NULL;NULL;NULL;end_of_practice;NULL;5163;NULL;NULL;NULL;NULL;32;NULL;NULL;qbzttsocef3cc2y;NULL;NULL;NULL;NULL;html-keyboard-response;478875;practice_trials;478885;798.142;0.928571;NULL;14_11_2020_4_7_15
1;6;1;noStructureExp;bars;7;1873;orange;red,orange,pink,saddlebrown,blue,black,white;390,300,660,120,210,570,480;150,180,210,240,270,300,330;32;2;4;hylrm4wtyodr4n7;false;167.259;390;195;psychophysics;84997;practice_trials;NULL;NULL;NULL;NULL;14_11_2020_14_47_51
1;6;1;noStructureExp;query;7;6264;orange;red,orange,pink,saddlebrown,blue,black,white;390,300,660,120,210,570,480;150,180,210,240,270,300,330;52;2;4;hylrm4wtyodr4n7;false;168.149;390;195;psychophysics;92267;practice_trial;NULL;NULL;NULL;NULL;14_11_2020_14_47_51
2;3;1;noStructureExp;bars;4;1246;red;white,saddlebrown,blue,red;300,210,390,480;180,210,240,270;32;4;6;hylrm4wtyodr4n7;false;167.258;390;195;psychophysics;95524;practice_trials;NULL;NULL;NULL;NULL;14_11_2020_14_47_51
2;3;1;noStructureExp;query;4;6370;red;white,saddlebrown,blue,red;300,210,390,480;180,210,240,270;54;4;6;hylrm4wtyodr4n7;false;167.251;390;195;psychophysics;102899;practice_trial;NULL;NULL;NULL;NULL;14_11_2020_14_47_51
3;5;1;noStructureExp;bars;6;472;white;green,orange,saddlebrown,white,blue,pink;390,120,480,210,570,300;180,210,240,270,300,330;32;4;-16;hylrm4wtyodr4n7;invalid response;167.233;390;195;psychophysics;105379;practice_trials;NULL;NULL;NULL;NULL;14_11_2020_14_47_51
3;5;1;noStructureExp;query;6;1450;white;green,orange,saddlebrown,white,blue,pink;390,120,480,210,570,300;180,210,240,270,300,330;32;4;-16;hylrm4wtyodr4n7;invalid response;167.245;390;195;psychophysics;107835;practice_trial;NULL;NULL;NULL;NULL;14_11_2020_14_47_51
4;2;1;noStructureExp;bars;3;596;purple;red,pink,purple;300,480,390;270,300,330;32;3;1;hylrm4wtyodr4n7;false;167.208;390;195;psychophysics;114450;practice_trials;NULL;NULL;NULL;NULL;14_11_2020_14_47_51
4;2;1;noStructureExp;query;3;3587;purple;red,pink,purple;300,480,390;270,300,330;49;3;1;hylrm4wtyodr4n7;false;167.246;390;195;psychophysics;119042;practice_trial;NULL;NULL;NULL;NULL;14_11_2020_14_47_51
5;1;1;noStructureExp;bars;2;489;pink;pink,black;390,3;210,24;32;1;7;hylrm4wtyodr4n7;false;167.239;390;195;psychophysics;121538;practice_trials;NULL;NULL;NULL;NULL;14_11_2020_14_47_51
5;1;1;noStructureExp;query;2;4747;pink;pink,black;390,3;210,24;55;1;7;hylrm4wtyodr4n7;false;167.249;390;195;psychophysics;127291;practice_trial;NULL;NULL;NULL;NULL;14_11_2020_14_47_51
6;0;1;noStructureExp;bars;1;1272;red;red;390;270;32;1;2;hylrm4wtyodr4n7;false;167.256;390;195;psychophysics;130572;practice_trials;NULL;NULL;NULL;NULL;14_11_2020_14_47_51
6;0;1;noStructureExp;query;1;5698;red;red;390;270;50;1;2;hylrm4wtyodr4n7;false;167.248;390;195;psychophysics;137276;practice_trial;NULL;NULL;NULL;NULL;14_11_2020_14_47_51
7;4;1;noStructureExp;bars;5;230;pink;pink,white,orange,red,yellow;570,210,480,390,300;180,210,240,270,300;32;1;1;hylrm4wtyodr4n7;true;167.264;390;195;psychophysics;139515;practice_trials;NULL;NULL;NULL;NULL;14_11_2020_14_47_51
7;4;1;noStructureExp;query;5;4987;pink;pink,white,orange,red,yellow;570,210,480,390,300;180,210,240,270,300;49;1;1;hylrm4wtyodr4n7;true;167.249;390;195;psychophysics;145507;practice_trial;NULL;NULL;NULL;NULL;14_11_2020_14_47_51
8;6;2;noStructureCont;bars;7;610;white;black,white,pink,yellow,green,blue,orange;120,210,300,390,480,570,660;150,180,210,240,270,300,330;32;2;5;hylrm4wtyodr4n7;false;167.247;390;195;psychophysics;151523;practice_trials;NULL;NULL;NULL;NULL;14_11_2020_14_47_51
8;6;2;noStructureCont;query;7;3473;white;black,white,pink,yellow,green,blue,orange;120,210,300,390,480,570,660;150,180,210,240,270,300,330;53;2;5;hylrm4wtyodr4n7;false;167.244;390;195;psychophysics;156003;practice_trial;NULL;NULL;NULL;NULL;14_11_2020_14_47_51
9;2;2;noStructureCont;bars;3;393;black;pink,white,black;300,390,480;270,300,330;32;3;2;hylrm4wtyodr4n7;false;167.305;390;195;psychophysics;158402;practice_trials;NULL;NULL;NULL;NULL;14_11_2020_14_47_51
9;2;2;noStructureCont;query;3;2803;black;pink,white,black;300,390,480;270,300,330;50;3;2;hylrm4wtyodr4n7;false;16.725;390;195;psychophysics;162210;practice_trial;NULL;NULL;NULL;NULL;14_11_2020_14_47_51
10;0;2;noStructureCont;bars;1;661;purple;purple;390;270;32;1;1;hylrm4wtyodr4n7;true;167.247;390;195;psychophysics;164879;practice_trials;NULL;NULL;NULL;NULL;14_11_2020_14_47_51
10;0;2;noStructureCont;query;1;2015;purple;purple;390;270;49;1;1;hylrm4wtyodr4n7;true;167.254;390;195;psychophysics;167899;practice_trial;NULL;NULL;NULL;NULL;14_11_2020_14_47_51
11;3;2;noStructureCont;bars;4;566;blue;red,purple,yellow,blue;210,300,390,480;180,210,240,270;32;4;3;hylrm4wtyodr4n7;false;167.248;390;195;psychophysics;170474;practice_trials;NULL;NULL;NULL;NULL;14_11_2020_14_47_51
11;3;2;noStructureCont;query;4;3290;blue;red,purple,yellow,blue;210,300,390,480;180,210,240,270;51;4;3;hylrm4wtyodr4n7;false;167.245;390;195;psychophysics;174770;practice_trial;NULL;NULL;NULL;NULL;14_11_2020_14_47_51
12;1;2;noStructureCont;bars;2;625;red;red,green;300,39;210,24;32;1;1;hylrm4wtyodr4n7;true;167.256;390;195;psychophysics;177402;practice_trials;NULL;NULL;NULL;NULL;14_11_2020_14_47_51
12;1;2;noStructureCont;query;2;2531;red;red,green;300,39;210,24;49;1;1;hylrm4wtyodr4n7;true;167.253;390;195;psychophysics;180938;practice_trial;NULL;NULL;NULL;NULL;14_11_2020_14_47_51
13;5;2;noStructureCont;bars;6;544;purple;red,black,green,purple,white,yellow;120,210,300,390,480,570;180,210,240,270,300,330;32;4;1;hylrm4wtyodr4n7;false;167.259;390;195;psychophysics;183491;practice_trials;NULL;NULL;NULL;NULL;14_11_2020_14_47_51
13;5;2;noStructureCont;query;6;1235;purple;red,black,green,purple,white,yellow;120,210,300,390,480,570;180,210,240,270,300,330;49;4;1;hylrm4wtyodr4n7;false;167.252;390;195;psychophysics;185731;practice_trial;NULL;NULL;NULL;NULL;14_11_2020_14_47_51
14;4;2;noStructureCont;bars;5;373;orange;orange,saddlebrown,pink,white,black;210,300,390,480,570;180,210,240,270,300;32;1;3;hylrm4wtyodr4n7;false;167.263;390;195;psychophysics;188123;practice_trials;NULL;NULL;NULL;NULL;14_11_2020_14_47_51
14;4;2;noStructureCont;query;5;1907;orange;orange,saddlebrown,pink,white,black;210,300,390,480,570;180,210,240,270,300;51;1;3;hylrm4wtyodr4n7;false;167.247;390;195;psychophysics;191036;practice_trial;NULL;NULL;NULL;NULL;14_11_2020_14_47_51
NULL;NULL;NULL;NULL;end_of_practice;NULL;6955;NULL;NULL;NULL;NULL;32;NULL;NULL;hylrm4wtyodr4n7;NULL;NULL;NULL;NULL;html-keyboard-response;198995;practice_trials;199001;331.668;0.214286;NULL;14_11_2020_14_47_51
1;0;1;noStructureExp;bars;1;5399;red;red;390;240;32;1;1;q5ep7vxrajzuy3s;true;166.672;390;195;psychophysics;638333;practice_trials;NULL;NULL;NULL;NULL;14_11_2020_14_34_59
1;0;1;noStructureExp;query;1;4278;red;red;390;240;49;1;1;q5ep7vxrajzuy3s;true;167.327;390;195;psychophysics;643633;practice_trial;NULL;NULL;NULL;NULL;14_11_2020_14_34_59
2;5;1;noStructureExp;bars;6;27784;pink;orange,black,green,yellow,pink,white;570,210,390,480,120,300;150,180,210,240,270,300;32;5;5;q5ep7vxrajzuy3s;true;166.673;390;195;psychophysics;673437;practice_trials;NULL;NULL;NULL;NULL;14_11_2020_14_34_59
2;5;1;noStructureExp;query;6;5897;pink;orange,black,green,yellow,pink,white;570,210,390,480,120,300;150,180,210,240,270,300;53;5;5;q5ep7vxrajzuy3s;true;166.673;390;195;psychophysics;680346;practice_trial;NULL;NULL;NULL;NULL;14_11_2020_14_34_59
3;3;1;noStructureExp;bars;4;12193;yellow;yellow,white,blue,red;300,390,480,210;240,270,300,330;32;1;1;q5ep7vxrajzuy3s;true;166.674;390;195;psychophysics;694555;practice_trials;NULL;NULL;NULL;NULL;14_11_2020_14_34_59
3;3;1;noStructureExp;query;4;2356;yellow;yellow,white,blue,red;300,390,480,210;240,270,300,330;49;1;1;q5ep7vxrajzuy3s;true;166.678;390;195;psychophysics;697921;practice_trial;NULL;NULL;NULL;NULL;14_11_2020_14_34_59
4;4;1;noStructureExp;bars;5;7781;white;blue,red,white,black,green;570,300,480,390,210;210,240,270,300,330;32;3;4;q5ep7vxrajzuy3s;false;166.673;390;195;psychophysics;707714;practice_trials;NULL;NULL;NULL;NULL;14_11_2020_14_34_59
4;4;1;noStructureExp;query;5;2032;white;blue,red,white,black,green;570,300,480,390,210;210,240,270,300,330;52;3;4;q5ep7vxrajzuy3s;false;166.672;390;195;psychophysics;710754;practice_trial;NULL;NULL;NULL;NULL;14_11_2020_14_34_59
5;2;1;noStructureExp;bars;3;6697;red;red,yellow,blue;390,480,300;180,210,240;32;1;3;q5ep7vxrajzuy3s;false;166.674;390;195;psychophysics;719462;practice_trials;NULL;NULL;NULL;NULL;14_11_2020_14_34_59
5;2;1;noStructureExp;query;3;1248;red;red,yellow,blue;390,480,300;180,210,240;51;1;3;q5ep7vxrajzuy3s;false;166.668;390;195;psychophysics;721719;practice_trial;NULL;NULL;NULL;NULL;14_11_2020_14_34_59
6;1;1;noStructureExp;bars;2;5071;black;black,white;390,3;150,18;32;1;1;q5ep7vxrajzuy3s;true;166.673;390;195;psychophysics;728804;practice_trials;NULL;NULL;NULL;NULL;14_11_2020_14_34_59
6;1;1;noStructureExp;query;2;4517;black;black,white;390,3;150,18;49;1;1;q5ep7vxrajzuy3s;true;166.673;390;195;psychophysics;734332;practice_trial;NULL;NULL;NULL;NULL;14_11_2020_14_34_59
7;6;1;noStructureExp;bars;7;30269;yellow;purple,black,yellow,pink,blue,orange,white;660,480,570,120,390,210,300;150,180,210,240,270,300,330;32;3;3;q5ep7vxrajzuy3s;true;166.674;390;195;psychophysics;766616;practice_trials;NULL;NULL;NULL;NULL;14_11_2020_14_34_59
7;6;1;noStructureExp;query;7;6130;yellow;purple,black,yellow,pink,blue,orange,white;660,480,570,120,390,210,300;150,180,210,240,270,300,330;51;3;3;q5ep7vxrajzuy3s;true;166.673;390;195;psychophysics;773756;practice_trial;NULL;NULL;NULL;NULL;14_11_2020_14_34_59
8;1;2;noStructureCont;bars;2;3806;white;white,orange;300,39;150,18;32;1;1;q5ep7vxrajzuy3s;true;166.671;390;195;psychophysics;789210;practice_trials;NULL;NULL;NULL;NULL;14_11_2020_14_34_59
8;1;2;noStructureCont;query;2;1481;white;white,orange;300,39;150,18;49;1;1;q5ep7vxrajzuy3s;true;166.672;390;195;psychophysics;791700;practice_trial;NULL;NULL;NULL;NULL;14_11_2020_14_34_59
9;6;2;noStructureCont;bars;7;21494;red;yellow,black,red,white,pink,green,blue;120,210,300,390,480,570,660;150,180,210,240,270,300,330;32;3;3;q5ep7vxrajzuy3s;true;166.673;390;195;psychophysics;815204;practice_trials;NULL;NULL;NULL;NULL;14_11_2020_14_34_59
9;6;2;noStructureCont;query;7;2458;red;yellow,black,red,white,pink,green,blue;120,210,300,390,480,570,660;150,180,210,240,270,300,330;51;3;3;q5ep7vxrajzuy3s;true;166.681;390;195;psychophysics;818668;practice_trial;NULL;NULL;NULL;NULL;14_11_2020_14_34_59
10;0;2;noStructureCont;bars;1;4495;saddlebrown;saddlebrown;390;240;32;1;1;q5ep7vxrajzuy3s;true;166.675;390;195;psychophysics;825172;practice_trials;NULL;NULL;NULL;NULL;14_11_2020_14_34_59
10;0;2;noStructureCont;query;1;1203;saddlebrown;saddlebrown;390;240;49;1;1;q5ep7vxrajzuy3s;true;166.669;390;195;psychophysics;827387;practice_trial;NULL;NULL;NULL;NULL;14_11_2020_14_34_59
11;4;2;noStructureCont;bars;5;18005;green;orange,purple,green,red,blue;210,300,390,480,570;210,240,270,300,330;32;3;3;q5ep7vxrajzuy3s;true;166.673;390;195;psychophysics;847408;practice_trials;NULL;NULL;NULL;NULL;14_11_2020_14_34_59
11;4;2;noStructureCont;query;5;1583;green;orange,purple,green,red,blue;210,300,390,480,570;210,240,270,300,330;51;3;3;q5ep7vxrajzuy3s;true;166.675;390;195;psychophysics;850000;practice_trial;NULL;NULL;NULL;NULL;14_11_2020_14_34_59
12;5;2;noStructureCont;bars;6;15786;orange;pink,red,yellow,black,orange,saddlebrown;120,210,300,390,480,570;150,180,210,240,270,300;32;5;5;q5ep7vxrajzuy3s;true;166.672;390;195;psychophysics;867796;practice_trials;NULL;NULL;NULL;NULL;14_11_2020_14_34_59
12;5;2;noStructureCont;query;6;9448;orange;pink,red,yellow,black,orange,saddlebrown;120,210,300,390,480,570;150,180,210,240,270,300;53;5;5;q5ep7vxrajzuy3s;true;166.673;390;195;psychophysics;878254;practice_trial;NULL;NULL;NULL;NULL;14_11_2020_14_34_59
13;3;2;noStructureCont;bars;4;9739;saddlebrown;saddlebrown,orange,blue,white;210,300,390,480;240,270,300,330;32;1;1;q5ep7vxrajzuy3s;true;166.673;390;195;psychophysics;890003;practice_trials;NULL;NULL;NULL;NULL;14_11_2020_14_34_59
13;3;2;noStructureCont;query;4;1526;saddlebrown;saddlebrown,orange,blue,white;210,300,390,480;240,270,300,330;49;1;1;q5ep7vxrajzuy3s;true;166.684;390;195;psychophysics;892536;practice_trial;NULL;NULL;NULL;NULL;14_11_2020_14_34_59
14;2;2;noStructureCont;bars;3;3377;pink;pink,saddlebrown,orange;300,390,480;180,210,240;32;1;1;q5ep7vxrajzuy3s;true;166.673;390;195;psychophysics;897935;practice_trials;NULL;NULL;NULL;NULL;14_11_2020_14_34_59
14;2;2;noStructureCont;query;3;1258;pink;pink,saddlebrown,orange;300,390,480;180,210,240;49;1;1;q5ep7vxrajzuy3s;true;166.666;390;195;psychophysics;900202;practice_trial;NULL;NULL;NULL;NULL;14_11_2020_14_34_59
NULL;NULL;NULL;NULL;end_of_practice;NULL;12106;NULL;NULL;NULL;NULL;32;NULL;NULL;q5ep7vxrajzuy3s;NULL;NULL;NULL;NULL;html-keyboard-response;913316;practice_trials;913328;152.221;0.857143;NULL;14_11_2020_14_34_59
1;3;1;noStructureExp;bars;4;21124;black;orange,black,white,pink;480,210,390,300;240,270,300,330;32;2;4;ub40eh4k8rdgvtb;false;167.379;390;195;psychophysics;172449;practice_trials;NULL;NULL;NULL;NULL;14_11_2020_14_51_56
1;3;1;noStructureExp;query;4;6476;black;orange,black,white,pink;480,210,390,300;240,270,300,330;52;2;4;ub40eh4k8rdgvtb;false;167.676;390;195;psychophysics;179936;practice_trial;NULL;NULL;NULL;NULL;14_11_2020_14_51_56
2;4;1;noStructureExp;bars;5;14910;red;blue,red,black,white,purple;570,480,300,390,210;180,210,240,270,300;32;2;3;ub40eh4k8rdgvtb;false;167.246;390;195;psychophysics;196855;practice_trials;NULL;NULL;NULL;NULL;14_11_2020_14_51_56
2;4;1;noStructureExp;query;5;7850;red;blue,red,black,white,purple;570,480,300,390,210;180,210,240,270,300;51;2;3;ub40eh4k8rdgvtb;false;167.245;390;195;psychophysics;205711;practice_trial;NULL;NULL;NULL;NULL;14_11_2020_14_51_56
3;6;1;noStructureExp;bars;7;6976;saddlebrown;pink,orange,purple,blue,white,yellow,saddlebrown;300,660,390,480,210,570,120;150,180,210,240,270,300,330;32;7;1;ub40eh4k8rdgvtb;false;167.247;390;195;psychophysics;214696;practice_trials;NULL;NULL;NULL;NULL;14_11_2020_14_51_56
3;6;1;noStructureExp;query;7;4139;saddlebrown;pink,orange,purple,blue,white,yellow,saddlebrown;300,660,390,480,210,570,120;150,180,210,240,270,300,330;49;7;1;ub40eh4k8rdgvtb;false;335.864;390;195;psychophysics;219841;practice_trial;NULL;NULL;NULL;NULL;14_11_2020_14_51_56
4;1;1;noStructureExp;bars;2;3944;pink;red,pink;300,39;270,3;32;2;1;ub40eh4k8rdgvtb;false;167.245;390;195;psychophysics;225792;practice_trials;NULL;NULL;NULL;NULL;14_11_2020_14_51_56
4;1;1;noStructureExp;query;2;2978;pink;red,pink;300,39;270,3;49;2;1;ub40eh4k8rdgvtb;false;167.259;390;195;psychophysics;229775;practice_trial;NULL;NULL;NULL;NULL;14_11_2020_14_51_56
5;0;1;noStructureExp;bars;1;1018;green;green;390;330;32;1;1;ub40eh4k8rdgvtb;true;167.248;390;195;psychophysics;232800;practice_trials;NULL;NULL;NULL;NULL;14_11_2020_14_51_56
5;0;1;noStructureExp;query;1;851;green;green;390;330;49;1;1;ub40eh4k8rdgvtb;true;167.278;390;195;psychophysics;234655;practice_trial;NULL;NULL;NULL;NULL;14_11_2020_14_51_56
6;2;1;noStructureExp;bars;3;9874;pink;purple,pink,black;480,300,390;180,210,240;32;2;2;ub40eh4k8rdgvtb;true;167.816;390;195;psychophysics;246544;practice_trials;NULL;NULL;NULL;NULL;14_11_2020_14_51_56
6;2;1;noStructureExp;query;3;4895;pink;purple,pink,black;480,300,390;180,210,240;50;2;2;ub40eh4k8rdgvtb;true;268.328;390;195;psychophysics;252447;practice_trial;NULL;NULL;NULL;NULL;14_11_2020_14_51_56
7;5;1;noStructureExp;bars;6;6406;red;green,black,pink,red,blue,orange;480,210,300,390,570,120;150,180,210,240,270,300;32;4;4;ub40eh4k8rdgvtb;true;167.247;390;195;psychophysics;260862;practice_trials;NULL;NULL;NULL;NULL;14_11_2020_14_51_56
7;5;1;noStructureExp;query;6;5675;red;green,black,pink,red,blue,orange;480,210,300,390,570,120;150,180,210,240,270,300;52;4;4;ub40eh4k8rdgvtb;true;60.784;390;195;psychophysics;267545;practice_trial;NULL;NULL;NULL;NULL;14_11_2020_14_51_56
8;6;2;noStructureCont;bars;7;4399;black;blue,yellow,red,green,pink,saddlebrown,black;120,210,300,390,480,570,660;150,180,210,240,270,300,330;32;7;7;ub40eh4k8rdgvtb;true;167.242;390;195;psychophysics;276688;practice_trials;NULL;NULL;NULL;NULL;14_11_2020_14_51_56
8;6;2;noStructureCont;query;7;6069;black;blue,yellow,red,green,pink,saddlebrown,black;120,210,300,390,480,570,660;150,180,210,240,270,300,330;55;7;7;ub40eh4k8rdgvtb;true;472.993;390;195;psychophysics;283762;practice_trial;NULL;NULL;NULL;NULL;14_11_2020_14_51_56
9;1;2;noStructureCont;bars;2;3965;green;orange,green;300,39;270,3;32;2;2;ub40eh4k8rdgvtb;true;167.246;390;195;psychophysics;289736;practice_trials;NULL;NULL;NULL;NULL;14_11_2020_14_51_56
9;1;2;noStructureCont;query;2;3979;green;orange,green;300,39;270,3;50;2;2;ub40eh4k8rdgvtb;true;167.244;390;195;psychophysics;294720;practice_trial;NULL;NULL;NULL;NULL;14_11_2020_14_51_56
10;3;2;noStructureCont;bars;4;2088;red;green,red,orange,white;210,300,390,480;240,270,300,330;32;2;2;ub40eh4k8rdgvtb;true;167.246;390;195;psychophysics;298815;practice_trials;NULL;NULL;NULL;NULL;14_11_2020_14_51_56
10;3;2;noStructureCont;query;4;4730;red;green,red,orange,white;210,300,390,480;240,270,300,330;50;2;2;ub40eh4k8rdgvtb;true;320.838;390;195;psychophysics;304551;practice_trial;NULL;NULL;NULL;NULL;14_11_2020_14_51_56
11;0;2;noStructureCont;bars;1;1002;purple;purple;390;330;32;1;1;ub40eh4k8rdgvtb;true;167.269;390;195;psychophysics;307560;practice_trials;NULL;NULL;NULL;NULL;14_11_2020_14_51_56
11;0;2;noStructureCont;query;1;498;purple;purple;390;330;49;1;1;ub40eh4k8rdgvtb;true;16.724;390;195;psychophysics;309063;practice_trial;NULL;NULL;NULL;NULL;14_11_2020_14_51_56
12;2;2;noStructureCont;bars;3;4039;white;red,white,orange;300,390,480;180,210,240;32;2;2;ub40eh4k8rdgvtb;true;167.246;390;195;psychophysics;315111;practice_trials;NULL;NULL;NULL;NULL;14_11_2020_14_51_56
12;2;2;noStructureCont;query;3;1508;white;red,white,orange;300,390,480;180,210,240;50;2;2;ub40eh4k8rdgvtb;true;16.724;390;195;psychophysics;317623;practice_trial;NULL;NULL;NULL;NULL;14_11_2020_14_51_56
13;4;2;noStructureCont;bars;5;3375;blue;green,blue,orange,black,purple;210,300,390,480,570;180,210,240,270,300;32;2;2;ub40eh4k8rdgvtb;true;16.725;390;195;psychophysics;323006;practice_trials;NULL;NULL;NULL;NULL;14_11_2020_14_51_56
13;4;2;noStructureCont;query;5;4269;blue;green,blue,orange,black,purple;210,300,390,480,570;180,210,240,270,300;50;2;2;ub40eh4k8rdgvtb;true;38.271;390;195;psychophysics;328281;practice_trial;NULL;NULL;NULL;NULL;14_11_2020_14_51_56
14;5;2;noStructureCont;bars;6;3594;orange;red,saddlebrown,pink,orange,green,white;120,210,300,390,480,570;150,180,210,240,270,300;32;4;4;ub40eh4k8rdgvtb;true;167.247;390;195;psychophysics;333887;practice_trials;NULL;NULL;NULL;NULL;14_11_2020_14_51_56
14;5;2;noStructureCont;query;6;4276;orange;red,saddlebrown,pink,orange,green,white;120,210,300,390,480,570;150,180,210,240,270,300;52;4;4;ub40eh4k8rdgvtb;true;35.246;390;195;psychophysics;339169;practice_trial;NULL;NULL;NULL;NULL;14_11_2020_14_51_56
NULL;NULL;NULL;NULL;end_of_practice;NULL;4385;NULL;NULL;NULL;NULL;32;NULL;NULL;ub40eh4k8rdgvtb;NULL;NULL;NULL;NULL;html-keyboard-response;344559;practice_trials;344565;574.275;0.714286;NULL;14_11_2020_14_51_56
1;0;1;noStructureCont;bars;1;893;purple;purple;390;210;32;1;1;ddd9z40nfc89n9e;true;167.263;390;195;psychophysics;4885;experimental_data;NULL;NULL;NULL;NULL;14_11_2020_14_21_20
1;0;1;noStructureCont;query;1;810;purple;purple;390;210;49;1;1;ddd9z40nfc89n9e;true;167.269;390;195;psychophysics;6708;experimental_data;NULL;NULL;NULL;NULL;14_11_2020_14_21_20
2;18;1;noStructureCont;bars;4;3906;saddlebrown;saddlebrown,purple,white,black;210,300,390,480;180,210,240,270;32;1;1;ddd9z40nfc89n9e;true;167.246;390;195;psychophysics;12628;experimental_data;NULL;NULL;NULL;NULL;14_11_2020_14_21_20
2;18;1;noStructureCont;query;4;1330;saddlebrown;saddlebrown,purple,white,black;210,300,390,480;180,210,240,270;49;1;1;ddd9z40nfc89n9e;true;16.725;390;195;psychophysics;14971;experimental_data;NULL;NULL;NULL;NULL;14_11_2020_14_21_20
3;19;1;noStructureCont;bars;4;2756;pink;pink,red,orange,green;210,300,390,480;180,210,240,270;32;1;1;ddd9z40nfc89n9e;true;167.252;390;195;psychophysics;19738;experimental_data;NULL;NULL;NULL;NULL;14_11_2020_14_21_20
3;19;1;noStructureCont;query;4;768;pink;pink,red,orange,green;210,300,390,480;180,210,240,270;49;1;1;ddd9z40nfc89n9e;true;16.728;390;195;psychophysics;21514;experimental_data;NULL;NULL;NULL;NULL;14_11_2020_14_21_20
4;27;1;noStructureCont;bars;6;12488;yellow;black,saddlebrown,red,yellow,orange,blue;120,210,300,390,480,570;180,210,240,270,300,330;32;4;4;ddd9z40nfc89n9e;true;167.251;390;195;psychophysics;36012;experimental_data;NULL;NULL;NULL;NULL;14_11_2020_14_21_20
4;27;1;noStructureCont;query;6;1759;yellow;black,saddlebrown,red,yellow,orange,blue;120,210,300,390,480,570;180,210,240,270,300,330;52;4;4;ddd9z40nfc89n9e;true;16.726;390;195;psychophysics;38778;experimental_data;NULL;NULL;NULL;NULL;14_11_2020_14_21_20
5;32;1;noStructureCont;bars;7;12608;red;blue,orange,red,green,yellow,pink,white;120,210,300,390,480,570,660;150,180,210,240,270,300,330;32;3;1;ddd9z40nfc89n9e;false;16.725;390;195;psychophysics;53396;experimental_data;NULL;NULL;NULL;NULL;14_11_2020_14_21_20
5;32;1;noStructureCont;query;7;519;red;blue,orange,red,green,yellow,pink,white;120,210,300,390,480,570,660;150,180,210,240,270,300,330;49;3;1;ddd9z40nfc89n9e;false;167.259;390;195;psychophysics;54922;experimental_data;NULL;NULL;NULL;NULL;14_11_2020_14_21_20
6;29;1;noStructureCont;bars;6;34689;black;yellow,purple,black,green,orange,red;120,210,300,390,480,570;150,180,210,240,270,300;32;3;3;ddd9z40nfc89n9e;true;16.725;390;195;psychophysics;91619;experimental_data;NULL;NULL;NULL;NULL;14_11_2020_14_21_20
6;29;1;noStructureCont;query;6;1365;black;yellow,purple,black,green,orange,red;120,210,300,390,480,570;150,180,210,240,270,300;51;3;3;ddd9z40nfc89n9e;true;167.242;390;195;psychophysics;93994;experimental_data;NULL;NULL;NULL;NULL;14_11_2020_14_21_20
7;21;1;noStructureCont;bars;5;2284;yellow;black,saddlebrown,blue,yellow,orange;210,300,390,480,570;180,210,240,270,300;32;4;-31;ddd9z40nfc89n9e;invalid response;167.256;390;195;psychophysics;98289;experimental_data;NULL;NULL;NULL;NULL;14_11_2020_14_21_20
7;21;1;noStructureCont;query;5;1298;yellow;black,saddlebrown,blue,yellow,orange;210,300,390,480,570;180,210,240,270,300;17;4;-31;ddd9z40nfc89n9e;invalid response;167.252;390;195;psychophysics;100593;experimental_data;NULL;NULL;NULL;NULL;14_11_2020_14_21_20
8;6;1;noStructureCont;bars;2;1298;red;black,red;300,39;180,21;32;2;2;ddd9z40nfc89n9e;true;167.252;390;195;psychophysics;107898;experimental_data;NULL;NULL;NULL;NULL;14_11_2020_14_21_20
8;6;1;noStructureCont;query;2;1377;red;black,red;300,39;180,21;50;2;2;ddd9z40nfc89n9e;true;167.252;390;195;psychophysics;110281;experimental_data;NULL;NULL;NULL;NULL;14_11_2020_14_21_20
9;30;1;noStructureCont;bars;7;6497;red;orange,saddlebrown,blue,purple,white,red,green;120,210,300,390,480,570,660;150,180,210,240,270,300,330;32;6;4;ddd9z40nfc89n9e;false;167.252;390;195;psychophysics;118787;experimental_data;NULL;NULL;NULL;NULL;14_11_2020_14_21_20
9;30;1;noStructureCont;query;7;3032;red;orange,saddlebrown,blue,purple,white,red,green;120,210,300,390,480,570,660;150,180,210,240,270,300,330;52;6;4;ddd9z40nfc89n9e;false;167.249;390;195;psychophysics;122825;experimental_data;NULL;NULL;NULL;NULL;14_11_2020_14_21_20
10;4;1;noStructureCont;bars;1;1640;saddlebrown;saddlebrown;390;180;32;1;1;ddd9z40nfc89n9e;true;167.242;390;195;psychophysics;126473;experimental_data;NULL;NULL;NULL;NULL;14_11_2020_14_21_20
10;4;1;noStructureCont;query;1;414;saddlebrown;saddlebrown;390;180;49;1;1;ddd9z40nfc89n9e;true;167.207;390;195;psychophysics;127898;experimental_data;NULL;NULL;NULL;NULL;14_11_2020_14_21_20
11;33;1;noStructureCont;bars;7;9075;white;red,saddlebrown,black,pink,white,green,yellow;120,210,300,390,480,570,660;150,180,210,240,270,300,330;32;5;4;ddd9z40nfc89n9e;false;16.725;390;195;psychophysics;138986;experimental_data;NULL;NULL;NULL;NULL;14_11_2020_14_21_20
11;33;1;noStructureCont;query;7;1198;white;red,saddlebrown,black,pink,white,green,yellow;120,210,300,390,480,570,660;150,180,210,240,270,300,330;52;5;4;ddd9z40nfc89n9e;false;16.725;390;195;psychophysics;141193;experimental_data;NULL;NULL;NULL;NULL;14_11_2020_14_21_20
12;5;1;noStructureCont;bars;2;1184;black;orange,black;300,39;300,33;32;2;2;ddd9z40nfc89n9e;true;167.243;390;195;psychophysics;144385;experimental_data;NULL;NULL;NULL;NULL;14_11_2020_14_21_20
12;5;1;noStructureCont;query;2;594;black;orange,black;300,39;300,33;50;2;2;ddd9z40nfc89n9e;true;167.273;390;195;psychophysics;145985;experimental_data;NULL;NULL;NULL;NULL;14_11_2020_14_21_20
13;23;1;noStructureCont;bars;5;5465;yellow;green,yellow,blue,white,purple;210,300,390,480,570;210,240,270,300,330;32;2;2;ddd9z40nfc89n9e;true;16.725;390;195;psychophysics;153458;experimental_data;NULL;NULL;NULL;NULL;14_11_2020_14_21_20
13;23;1;noStructureCont;query;5;1098;yellow;green,yellow,blue,white,purple;210,300,390,480,570;210,240,270,300,330;50;2;2;ddd9z40nfc89n9e;true;167.271;390;195;psychophysics;155562;experimental_data;NULL;NULL;NULL;NULL;14_11_2020_14_21_20
14;13;1;noStructureCont;bars;3;2691;orange;yellow,orange,black;300,390,480;240,270,300;32;2;3;ddd9z40nfc89n9e;false;167.259;390;195;psychophysics;160265;experimental_data;NULL;NULL;NULL;NULL;14_11_2020_14_21_20
14;13;1;noStructureCont;query;3;760;orange;yellow,orange,black;300,390,480;240,270,300;51;2;3;ddd9z40nfc89n9e;false;167.253;390;195;psychophysics;162033;experimental_data;NULL;NULL;NULL;NULL;14_11_2020_14_21_20
15;20;1;noStructureCont;bars;5;7261;pink;pink,orange,yellow,blue,white;210,300,390,480,570;180,210,240,270,300;32;1;1;ddd9z40nfc89n9e;true;167.252;390;195;psychophysics;171304;experimental_data;NULL;NULL;NULL;NULL;14_11_2020_14_21_20
15;20;1;noStructureCont;query;5;442;pink;pink,orange,yellow,blue,white;210,300,390,480,570;180,210,240,270,300;49;1;1;ddd9z40nfc89n9e;true;167.284;390;195;psychophysics;172754;experimental_data;NULL;NULL;NULL;NULL;14_11_2020_14_21_20
16;11;1;noStructureCont;bars;3;905;purple;black,white,purple;300,390,480;240,270,300;32;3;3;ddd9z40nfc89n9e;true;167.245;390;195;psychophysics;175667;experimental_data;NULL;NULL;NULL;NULL;14_11_2020_14_21_20
16;11;1;noStructureCont;query;3;839;purple;black,white,purple;300,390,480;240,270,300;51;3;3;ddd9z40nfc89n9e;true;167.255;390;195;psychophysics;177513;experimental_data;NULL;NULL;NULL;NULL;14_11_2020_14_21_20
17;14;1;noStructureCont;bars;3;751;saddlebrown;saddlebrown,blue,white;300,390,480;240,270,300;32;1;1;ddd9z40nfc89n9e;true;167.233;390;195;psychophysics;180273;experimental_data;NULL;NULL;NULL;NULL;14_11_2020_14_21_20
17;14;1;noStructureCont;query;3;770;saddlebrown;saddlebrown,blue,white;300,390,480;240,270,300;49;1;1;ddd9z40nfc89n9e;true;167.254;390;195;psychophysics;182065;experimental_data;NULL;NULL;NULL;NULL;14_11_2020_14_21_20
18;25;1;noStructureCont;bars;6;9873;orange;black,green,purple,orange,red,blue;120,210,300,390,480,570;150,180,210,240,270,300;32;4;2;ddd9z40nfc89n9e;false;167.252;390;195;psychophysics;193947;experimental_data;NULL;NULL;NULL;NULL;14_11_2020_14_21_20
18;25;1;noStructureCont;query;6;782;orange;black,green,purple,orange,red,blue;120,210,300,390,480,570;150,180,210,240,270,300;50;4;2;ddd9z40nfc89n9e;false;167.238;390;195;psychophysics;195738;experimental_data;NULL;NULL;NULL;NULL;14_11_2020_14_21_20
19;15;1;noStructureCont;bars;4;2237;red;pink,red,yellow,blue;210,300,390,480;240,270,300,330;32;2;2;ddd9z40nfc89n9e;true;167.248;390;195;psychophysics;199986;experimental_data;NULL;NULL;NULL;NULL;14_11_2020_14_21_20
19;15;1;noStructureCont;query;4;1080;red;pink,red,yellow,blue;210,300,390,480;240,270,300,330;50;2;2;ddd9z40nfc89n9e;true;167.263;390;195;psychophysics;202073;experimental_data;NULL;NULL;NULL;NULL;14_11_2020_14_21_20
20;2;1;noStructureCont;bars;1;618;red;red;390;300;32;1;1;ddd9z40nfc89n9e;true;167.252;390;195;psychophysics;204705;experimental_data;NULL;NULL;NULL;NULL;14_11_2020_14_21_20
20;2;1;noStructureCont;query;1;394;red;red;390;300;49;1;1;ddd9z40nfc89n9e;true;16.723;390;195;psychophysics;206105;experimental_data;NULL;NULL;NULL;NULL;14_11_2020_14_21_20
21;7;1;noStructureCont;bars;2;619;purple;white,purple;300,39;210,24;32;2;2;ddd9z40nfc89n9e;true;167.258;390;195;psychophysics;208737;experimental_data;NULL;NULL;NULL;NULL;14_11_2020_14_21_20
21;7;1;noStructureCont;query;2;1010;purple;white,purple;300,39;210,24;50;2;2;ddd9z40nfc89n9e;true;167.248;390;195;psychophysics;210753;experimental_data;NULL;NULL;NULL;NULL;14_11_2020_14_21_20
22;28;1;noStructureCont;bars;6;25075;red;red,purple,saddlebrown,blue,black,white;120,210,300,390,480,570;150,180,210,240,270,300;32;1;1;ddd9z40nfc89n9e;true;16.725;390;195;psychophysics;237842;experimental_data;NULL;NULL;NULL;NULL;14_11_2020_14_21_20
22;28;1;noStructureCont;query;6;313;red;red,purple,saddlebrown,blue,black,white;120,210,300,390,480,570;150,180,210,240,270,300;49;1;1;ddd9z40nfc89n9e;true;167.257;390;195;psychophysics;239161;experimental_data;NULL;NULL;NULL;NULL;14_11_2020_14_21_20
23;22;1;noStructureCont;bars;5;4672;blue;purple,green,blue,red,white;210,300,390,480,570;210,240,270,300,330;32;3;4;ddd9z40nfc89n9e;false;167.251;390;195;psychophysics;245841;experimental_data;NULL;NULL;NULL;NULL;14_11_2020_14_21_20
23;22;1;noStructureCont;query;5;1939;blue;purple,green,blue,red,white;210,300,390,480,570;210,240,270,300,330;52;3;4;ddd9z40nfc89n9e;false;167.255;390;195;psychophysics;248785;experimental_data;NULL;NULL;NULL;NULL;14_11_2020_14_21_20
24;10;1;noStructureCont;bars;3;3679;yellow;saddlebrown,yellow,purple;300,390,480;270,300,330;32;2;2;ddd9z40nfc89n9e;true;167.252;390;195;psychophysics;254472;experimental_data;NULL;NULL;NULL;NULL;14_11_2020_14_21_20
24;10;1;noStructureCont;query;3;655;yellow;saddlebrown,yellow,purple;300,390,480;270,300,330;50;2;2;ddd9z40nfc89n9e;true;16.725;390;195;psychophysics;256136;experimental_data;NULL;NULL;NULL;NULL;14_11_2020_14_21_20
25;12;1;noStructureCont;bars;3;3129;yellow;orange,black,yellow;300,390,480;240,270,300;32;3;3;ddd9z40nfc89n9e;true;18.337;390;195;psychophysics;261776;experimental_data;NULL;NULL;NULL;NULL;14_11_2020_14_21_20
25;12;1;noStructureCont;query;3;722;yellow;orange,black,yellow;300,390,480;240,270,300;51;3;3;ddd9z40nfc89n9e;true;167.221;390;195;psychophysics;263504;experimental_data;NULL;NULL;NULL;NULL;14_11_2020_14_21_20
26;9;1;noStructureCont;bars;2;628;green;purple,green;300,39;300,33;32;2;2;ddd9z40nfc89n9e;true;167.245;390;195;psychophysics;266144;experimental_data;NULL;NULL;NULL;NULL;14_11_2020_14_21_20
26;9;1;noStructureCont;query;2;651;green;purple,green;300,39;300,33;50;2;2;ddd9z40nfc89n9e;true;167.255;390;195;psychophysics;267800;experimental_data;NULL;NULL;NULL;NULL;14_11_2020_14_21_20
27;3;1;noStructureCont;bars;1;320;saddlebrown;saddlebrown;390;300;32;1;1;ddd9z40nfc89n9e;true;167.289;390;195;psychophysics;270128;experimental_data;NULL;NULL;NULL;NULL;14_11_2020_14_21_20
27;3;1;noStructureCont;query;1;310;saddlebrown;saddlebrown;390;300;49;1;1;ddd9z40nfc89n9e;true;167.206;390;195;psychophysics;271448;experimental_data;NULL;NULL;NULL;NULL;14_11_2020_14_21_20
28;34;1;noStructureCont;bars;7;11590;red;yellow,red,white,orange,saddlebrown,purple,pink;120,210,300,390,480,570,660;150,180,210,240,270,300,330;32;2;1;ddd9z40nfc89n9e;false;16.725;390;195;psychophysics;285052;experimental_data;NULL;NULL;NULL;NULL;14_11_2020_14_21_20
28;34;1;noStructureCont;query;7;685;red;yellow,red,white,orange,saddlebrown,purple,pink;120,210,300,390,480,570,660;150,180,210,240,270,300,330;49;2;1;ddd9z40nfc89n9e;false;167.242;390;195;psychophysics;286744;experimental_data;NULL;NULL;NULL;NULL;14_11_2020_14_21_20
29;17;1;noStructureCont;bars;4;7354;purple;green,saddlebrown,red,purple;210,300,390,480;180,210,240,270;32;4;4;ddd9z40nfc89n9e;true;16.725;390;195;psychophysics;296106;experimental_data;NULL;NULL;NULL;NULL;14_11_2020_14_21_20
29;17;1;noStructureCont;query;4;1263;purple;green,saddlebrown,red,purple;210,300,390,480;180,210,240,270;52;4;4;ddd9z40nfc89n9e;true;167.243;390;195;psychophysics;298376;experimental_data;NULL;NULL;NULL;NULL;14_11_2020_14_21_20
30;24;1;noStructureCont;bars;5;11200;pink;yellow,pink,green,white,saddlebrown;210,300,390,480,570;180,210,240,270,300;32;2;2;ddd9z40nfc89n9e;true;16.725;390;195;psychophysics;311585;experimental_data;NULL;NULL;NULL;NULL;14_11_2020_14_21_20
30;24;1;noStructureCont;query;5;705;pink;yellow,pink,green,white,saddlebrown;210,300,390,480,570;180,210,240,270,300;50;2;2;ddd9z40nfc89n9e;true;167.245;390;195;psychophysics;313296;experimental_data;NULL;NULL;NULL;NULL;14_11_2020_14_21_20
31;31;1;noStructureCont;bars;7;19827;green;orange,white,blue,purple,green,saddlebrown,red;120,210,300,390,480,570,660;150,180,210,240,270,300,330;32;5;3;ddd9z40nfc89n9e;false;177.589;390;195;psychophysics;335136;experimental_data;NULL;NULL;NULL;NULL;14_11_2020_14_21_20
31;31;1;noStructureCont;query;7;432;green;orange,white,blue,purple,green,saddlebrown,red;120,210,300,390,480,570,660;150,180,210,240,270,300,330;51;5;3;ddd9z40nfc89n9e;false;167.236;390;195;psychophysics;336575;experimental_data;NULL;NULL;NULL;NULL;14_11_2020_14_21_20
32;8;1;noStructureCont;bars;2;647;white;white,yellow;300,39;180,21;32;1;1;ddd9z40nfc89n9e;true;167.239;390;195;psychophysics;339231;experimental_data;NULL;NULL;NULL;NULL;14_11_2020_14_21_20
32;8;1;noStructureCont;query;2;402;white;white,yellow;300,39;180,21;49;1;1;ddd9z40nfc89n9e;true;167.265;390;195;psychophysics;340640;experimental_data;NULL;NULL;NULL;NULL;14_11_2020_14_21_20
33;16;1;noStructureCont;bars;4;694;blue;yellow,pink,blue,purple;210,300,390,480;150,180,210,240;32;3;4;ddd9z40nfc89n9e;false;167.237;390;195;psychophysics;343352;experimental_data;NULL;NULL;NULL;NULL;14_11_2020_14_21_20
33;16;1;noStructureCont;query;4;1225;blue;yellow,pink,blue,purple;210,300,390,480;150,180,210,240;52;3;4;ddd9z40nfc89n9e;false;16.726;390;195;psychophysics;345584;experimental_data;NULL;NULL;NULL;NULL;14_11_2020_14_21_20
34;26;1;noStructureCont;bars;6;799;blue;purple,red,pink,blue,black,green;120,210,300,390,480,570;150,180,210,240,270,300;32;4;3;ddd9z40nfc89n9e;false;167.234;390;195;psychophysics;348391;experimental_data;NULL;NULL;NULL;NULL;14_11_2020_14_21_20
34;26;1;noStructureCont;query;6;1154;blue;purple,red,pink,blue,black,green;120,210,300,390,480,570;150,180,210,240,270,300;51;4;3;ddd9z40nfc89n9e;false;167.255;390;195;psychophysics;350551;experimental_data;NULL;NULL;NULL;NULL;14_11_2020_14_21_20
35;1;1;noStructureCont;bars;1;3490;blue;blue;390;330;32;1;1;ddd9z40nfc89n9e;true;167.248;390;195;psychophysics;356050;experimental_data;NULL;NULL;NULL;NULL;14_11_2020_14_21_20
35;1;1;noStructureCont;query;1;87;blue;blue;390;330;49;1;1;ddd9z40nfc89n9e;true;166.925;390;195;psychophysics;357144;experimental_data;NULL;NULL;NULL;NULL;14_11_2020_14_21_20
NULL;NULL;0;NULL;end_of_block;NULL;13883;NULL;NULL;NULL;NULL;32;NULL;NULL;ddd9z40nfc89n9e;NULL;NULL;NULL;NULL;html-keyboard-response;372032;experimental_data;372059;620.098;0.685714;NULL;14_11_2020_14_21_20
36;3;2;sortStructureCont;bars;1;546;blue;blue;390;300;32;1;1;ddd9z40nfc89n9e;true;167.181;390;195;psychophysics;373583;experimental_data;NULL;NULL;NULL;NULL;14_11_2020_14_21_20
36;3;2;sortStructureCont;query;1;418;blue;blue;390;300;49;1;1;ddd9z40nfc89n9e;true;167.263;390;195;psychophysics;375007;experimental_data;NULL;NULL;NULL;NULL;14_11_2020_14_21_20
37;12;2;sortStructureCont;bars;3;527;blue;blue,purple,red;300,390,480;240,270,300;32;1;1;ddd9z40nfc89n9e;true;167.256;390;195;psychophysics;377543;experimental_data;NULL;NULL;NULL;NULL;14_11_2020_14_21_20
37;12;2;sortStructureCont;query;3;530;blue;blue,purple,red;300,390,480;240,270,300;49;1;1;ddd9z40nfc89n9e;true;167.231;390;195;psychophysics;379080;experimental_data;NULL;NULL;NULL;NULL;14_11_2020_14_21_20
38;0;2;sortStructureCont;bars;1;510;blue;blue;390;210;32;1;1;ddd9z40nfc89n9e;true;167.288;390;195;psychophysics;381599;experimental_data;NULL;NULL;NULL;NULL;14_11_2020_14_21_20
38;0;2;sortStructureCont;query;1;350;blue;blue;390;210;49;1;1;ddd9z40nfc89n9e;true;167.241;390;195;psychophysics;382961;experimental_data;NULL;NULL;NULL;NULL;14_11_2020_14_21_20
39;19;2;sortStructureCont;bars;4;1892;blue;blue,purple,red,black;210,300,390,480;180,210,240,270;32;1;1;ddd9z40nfc89n9e;true;167.253;390;195;psychophysics;386863;experimental_data;NULL;NULL;NULL;NULL;14_11_2020_14_21_20
39;19;2;sortStructureCont;query;4;633;blue;blue,purple,red,black;210,300,390,480;180,210,240,270;49;1;1;ddd9z40nfc89n9e;true;167.208;390;195;psychophysics;388503;experimental_data;NULL;NULL;NULL;NULL;14_11_2020_14_21_20
40;23;2;sortStructureCont;bars;5;375;blue;black,pink,blue,purple,red;210,300,390,480,570;210,240,270,300,330;32;3;4;ddd9z40nfc89n9e;false;167.229;390;195;psychophysics;390887;experimental_data;NULL;NULL;NULL;NULL;14_11_2020_14_21_20
40;23;2;sortStructureCont;query;5;1546;blue;black,pink,blue,purple,red;210,300,390,480,570;210,240,270,300,330;52;3;4;ddd9z40nfc89n9e;false;167.262;390;195;psychophysics;393440;experimental_data;NULL;NULL;NULL;NULL;14_11_2020_14_21_20
41;2;2;sortStructureCont;bars;1;592;blue;blue;390;300;32;1;1;ddd9z40nfc89n9e;true;167.236;390;195;psychophysics;396039;experimental_data;NULL;NULL;NULL;NULL;14_11_2020_14_21_20
41;2;2;sortStructureCont;query;1;337;blue;blue;390;300;49;1;1;ddd9z40nfc89n9e;true;167.255;390;195;psychophysics;397383;experimental_data;NULL;NULL;NULL;NULL;14_11_2020_14_21_20
42;26;2;sortStructureCont;bars;6;2135;blue;pink,yellow,blue,purple,red,green;120,210,300,390,480,570;150,180,210,240,270,300;32;3;2;ddd9z40nfc89n9e;false;167.246;390;195;psychophysics;401527;experimental_data;NULL;NULL;NULL;NULL;14_11_2020_14_21_20
42;26;2;sortStructureCont;query;6;353;blue;pink,yellow,blue,purple,red,green;120,210,300,390,480,570;150,180,210,240,270,300;50;3;2;ddd9z40nfc89n9e;false;167.248;390;195;psychophysics;402887;experimental_data;NULL;NULL;NULL;NULL;14_11_2020_14_21_20
43;18;2;sortStructureCont;bars;4;376;blue;pink,blue,purple,red;210,300,390,480;180,210,240,270;32;2;2;ddd9z40nfc89n9e;true;16.721;390;195;psychophysics;405271;experimental_data;NULL;NULL;NULL;NULL;14_11_2020_14_21_20
43;18;2;sortStructureCont;query;4;417;blue;pink,blue,purple,red;210,300,390,480;180,210,240,270;50;2;2;ddd9z40nfc89n9e;true;16.728;390;195;psychophysics;406695;experimental_data;NULL;NULL;NULL;NULL;14_11_2020_14_21_20
44;7;2;sortStructureCont;bars;2;623;blue;blue,purple;300,39;210,24;32;1;1;ddd9z40nfc89n9e;true;167.247;390;195;psychophysics;409327;experimental_data;NULL;NULL;NULL;NULL;14_11_2020_14_21_20
44;7;2;sortStructureCont;query;2;330;blue;blue,purple;300,39;210,24;49;1;1;ddd9z40nfc89n9e;true;167.372;390;195;psychophysics;410663;experimental_data;NULL;NULL;NULL;NULL;14_11_2020_14_21_20
45;21;2;sortStructureCont;bars;5;502;white;orange,blue,purple,red,white;210,300,390,480,570;180,210,240,270,300;32;5;4;ddd9z40nfc89n9e;false;167.272;390;195;psychophysics;413175;experimental_data;NULL;NULL;NULL;NULL;14_11_2020_14_21_20
45;21;2;sortStructureCont;query;5;1065;white;orange,blue,purple,red,white;210,300,390,480,570;180,210,240,270,300;52;5;4;ddd9z40nfc89n9e;false;167.233;390;195;psychophysics;415257;experimental_data;NULL;NULL;NULL;NULL;14_11_2020_14_21_20
46;34;2;sortStructureCont;bars;7;558;purple;white,blue,purple,red,saddlebrown,pink,orange;120,210,300,390,480,570,660;150,180,210,240,270,300,330;32;3;4;ddd9z40nfc89n9e;false;167.208;390;195;psychophysics;417823;experimental_data;NULL;NULL;NULL;NULL;14_11_2020_14_21_20
46;34;2;sortStructureCont;query;7;1113;purple;white,blue,purple,red,saddlebrown,pink,orange;120,210,300,390,480,570,660;150,180,210,240,270,300,330;52;3;4;ddd9z40nfc89n9e;false;167.249;390;195;psychophysics;419943;experimental_data;NULL;NULL;NULL;NULL;14_11_2020_14_21_20
47;31;2;sortStructureCont;bars;7;12841;purple;white,green,saddlebrown,blue,purple,red,black;120,210,300,390,480,570,660;150,180,210,240,270,300,330;32;5;5;ddd9z40nfc89n9e;true;197.053;390;195;psychophysics;434793;experimental_data;NULL;NULL;NULL;NULL;14_11_2020_14_21_20
47;31;2;sortStructureCont;query;7;1234;purple;white,green,saddlebrown,blue,purple,red,black;120,210,300,390,480,570,660;150,180,210,240,270,300,330;53;5;5;ddd9z40nfc89n9e;true;167.253;390;195;psychophysics;437033;experimental_data;NULL;NULL;NULL;NULL;14_11_2020_14_21_20
48;29;2;sortStructureCont;bars;6;10574;blue;green,blue,purple,red,pink,orange;120,210,300,390,480,570;150,180,210,240,270,300;32;2;4;ddd9z40nfc89n9e;false;167.249;390;195;psychophysics;449616;experimental_data;NULL;NULL;NULL;NULL;14_11_2020_14_21_20
48;29;2;sortStructureCont;query;6;1240;blue;green,blue,purple,red,pink,orange;120,210,300,390,480,570;150,180,210,240,270,300;52;2;4;ddd9z40nfc89n9e;false;167.231;390;195;psychophysics;451863;experimental_data;NULL;NULL;NULL;NULL;14_11_2020_14_21_20
49;9;2;sortStructureCont;bars;2;15;purple;blue,purple;300,39;300,33;32;2;2;ddd9z40nfc89n9e;true;NULL;390;195;psychophysics;453887;experimental_data;NULL;NULL;NULL;NULL;14_11_2020_14_21_20
49;9;2;sortStructureCont;query;2;830;purple;blue,purple;300,39;300,33;50;2;2;ddd9z40nfc89n9e;true;167.239;390;195;psychophysics;455727;experimental_data;NULL;NULL;NULL;NULL;14_11_2020_14_21_20
50;32;2;sortStructureCont;bars;7;20555;pink;pink,yellow,white,blue,purple,red,orange;120,210,300,390,480,570,660;150,180,210,240,270,300,330;32;1;1;ddd9z40nfc89n9e;true;167.249;390;195;psychophysics;478296;experimental_data;NULL;NULL;NULL;NULL;14_11_2020_14_21_20
50;32;2;sortStructureCont;query;7;400;pink;pink,yellow,white,blue,purple,red,orange;120,210,300,390,480,570,660;150,180,210,240,270,300,330;49;1;1;ddd9z40nfc89n9e;true;167.227;390;195;psychophysics;479702;experimental_data;NULL;NULL;NULL;NULL;14_11_2020_14_21_20
51;11;2;sortStructureCont;bars;3;3216;purple;blue,purple,red;300,390,480;240,270,300;32;2;2;ddd9z40nfc89n9e;true;167.254;390;195;psychophysics;484926;experimental_data;NULL;NULL;NULL;NULL;14_11_2020_14_21_20
51;11;2;sortStructureCont;query;3;834;purple;blue,purple,red;300,390,480;240,270,300;50;2;2;ddd9z40nfc89n9e;true;167.237;390;195;psychophysics;486766;experimental_data;NULL;NULL;NULL;NULL;14_11_2020_14_21_20
52;27;2;sortStructureCont;bars;6;4456;purple;pink,blue,purple,red,green,black;120,210,300,390,480,570;180,210,240,270,300,330;32;3;3;ddd9z40nfc89n9e;true;167.246;390;195;psychophysics;493230;experimental_data;NULL;NULL;NULL;NULL;14_11_2020_14_21_20
52;27;2;sortStructureCont;query;6;1322;purple;pink,blue,purple,red,green,black;120,210,300,390,480,570;180,210,240,270,300,330;51;3;3;ddd9z40nfc89n9e;true;167.241;390;195;psychophysics;495558;experimental_data;NULL;NULL;NULL;NULL;14_11_2020_14_21_20
53;16;2;sortStructureCont;bars;4;2270;red;blue,purple,red,white;210,300,390,480;150,180,210,240;32;3;3;ddd9z40nfc89n9e;true;167.255;390;195;psychophysics;499839;experimental_data;NULL;NULL;NULL;NULL;14_11_2020_14_21_20
53;16;2;sortStructureCont;query;4;1208;red;blue,purple,red,white;210,300,390,480;150,180,210,240;51;3;3;ddd9z40nfc89n9e;true;167.247;390;195;psychophysics;502054;experimental_data;NULL;NULL;NULL;NULL;14_11_2020_14_21_20
54;14;2;sortStructureCont;bars;3;3648;red;blue,purple,red;300,390,480;240,270,300;32;3;3;ddd9z40nfc89n9e;true;167.252;390;195;psychophysics;507711;experimental_data;NULL;NULL;NULL;NULL;14_11_2020_14_21_20
54;14;2;sortStructureCont;query;3;1159;red;blue,purple,red;300,390,480;240,270,300;51;3;3;ddd9z40nfc89n9e;true;167.225;390;195;psychophysics;509879;experimental_data;NULL;NULL;NULL;NULL;14_11_2020_14_21_20
55;20;2;sortStructureCont;bars;5;7182;blue;saddlebrown,blue,purple,red,pink;210,300,390,480,570;180,210,240,270,300;32;2;2;ddd9z40nfc89n9e;true;167.253;390;195;psychophysics;519069;experimental_data;NULL;NULL;NULL;NULL;14_11_2020_14_21_20
55;20;2;sortStructureCont;query;5;852;blue;saddlebrown,blue,purple,red,pink;210,300,390,480,570;180,210,240,270,300;50;2;2;ddd9z40nfc89n9e;true;167.247;390;195;psychophysics;520927;experimental_data;NULL;NULL;NULL;NULL;14_11_2020_14_21_20
56;5;2;sortStructureCont;bars;2;677;purple;blue,purple;300,39;300,33;32;2;2;ddd9z40nfc89n9e;true;167.244;390;195;psychophysics;523614;experimental_data;NULL;NULL;NULL;NULL;14_11_2020_14_21_20
56;5;2;sortStructureCont;query;2;550;purple;blue,purple;300,39;300,33;50;2;2;ddd9z40nfc89n9e;true;167.283;390;195;psychophysics;525174;experimental_data;NULL;NULL;NULL;NULL;14_11_2020_14_21_20
57;24;2;sortStructureCont;bars;5;2134;blue;blue,purple,red,orange,yellow;210,300,390,480,570;180,210,240,270,300;32;1;1;ddd9z40nfc89n9e;true;16.725;390;195;psychophysics;529333;experimental_data;NULL;NULL;NULL;NULL;14_11_2020_14_21_20
57;24;2;sortStructureCont;query;5;1126;blue;blue,purple,red,orange,yellow;210,300,390,480,570;180,210,240,270,300;49;1;1;ddd9z40nfc89n9e;true;16.724;390;195;psychophysics;531470;experimental_data;NULL;NULL;NULL;NULL;14_11_2020_14_21_20
58;8;2;sortStructureCont;bars;2;783;purple;blue,purple;300,39;180,21;32;2;1;ddd9z40nfc89n9e;false;167.212;390;195;psychophysics;534263;experimental_data;NULL;NULL;NULL;NULL;14_11_2020_14_21_20
58;8;2;sortStructureCont;query;2;450;purple;blue,purple;300,39;180,21;49;2;1;ddd9z40nfc89n9e;false;167.233;390;195;psychophysics;535719;experimental_data;NULL;NULL;NULL;NULL;14_11_2020_14_21_20
59;13;2;sortStructureCont;bars;3;1280;red;blue,purple,red;300,390,480;240,270,300;32;3;3;ddd9z40nfc89n9e;true;167.253;390;195;psychophysics;539007;experimental_data;NULL;NULL;NULL;NULL;14_11_2020_14_21_20
59;13;2;sortStructureCont;query;3;1255;red;blue,purple,red;300,390,480;240,270,300;51;3;3;ddd9z40nfc89n9e;true;167.265;390;195;psychophysics;541270;experimental_data;NULL;NULL;NULL;NULL;14_11_2020_14_21_20
60;22;2;sortStructureCont;bars;5;25217;orange;orange,blue,purple,red,black;210,300,390,480,570;210,240,270,300,330;32;1;1;ddd9z40nfc89n9e;true;16.725;390;195;psychophysics;568496;experimental_data;NULL;NULL;NULL;NULL;14_11_2020_14_21_20
60;22;2;sortStructureCont;query;5;2087;orange;orange,blue,purple,red,black;210,300,390,480,570;210,240,270,300,330;49;1;1;ddd9z40nfc89n9e;true;167.241;390;195;psychophysics;571590;experimental_data;NULL;NULL;NULL;NULL;14_11_2020_14_21_20
61;10;2;sortStructureCont;bars;3;1784;purple;blue,purple,red;300,390,480;270,300,330;32;2;2;ddd9z40nfc89n9e;true;167.246;390;195;psychophysics;575382;experimental_data;NULL;NULL;NULL;NULL;14_11_2020_14_21_20
61;10;2;sortStructureCont;query;3;1000;purple;blue,purple,red;300,390,480;270,300,330;50;2;2;ddd9z40nfc89n9e;true;16.726;390;195;psychophysics;577390;experimental_data;NULL;NULL;NULL;NULL;14_11_2020_14_21_20
62;6;2;sortStructureCont;bars;2;581;purple;blue,purple;300,39;180,21;32;2;1;ddd9z40nfc89n9e;false;167.224;390;195;psychophysics;579982;experimental_data;NULL;NULL;NULL;NULL;14_11_2020_14_21_20
62;6;2;sortStructureCont;query;2;1176;purple;blue,purple;300,39;180,21;49;2;1;ddd9z40nfc89n9e;false;167.248;390;195;psychophysics;582166;experimental_data;NULL;NULL;NULL;NULL;14_11_2020_14_21_20
63;4;2;sortStructureCont;bars;1;416;blue;blue;390;180;32;1;1;ddd9z40nfc89n9e;true;167.259;390;195;psychophysics;584589;experimental_data;NULL;NULL;NULL;NULL;14_11_2020_14_21_20
63;4;2;sortStructureCont;query;1;330;blue;blue;390;180;49;1;1;ddd9z40nfc89n9e;true;16.721;390;195;psychophysics;585925;experimental_data;NULL;NULL;NULL;NULL;14_11_2020_14_21_20
64;17;2;sortStructureCont;bars;4;30071;green;green,blue,purple,red;210,300,390,480;180,210,240,270;32;1;2;ddd9z40nfc89n9e;false;175.144;390;195;psychophysics;618007;experimental_data;NULL;NULL;NULL;NULL;14_11_2020_14_21_20
64;17;2;sortStructureCont;query;4;1041;green;green,blue,purple,red;210,300,390,480;180,210,240,270;50;1;2;ddd9z40nfc89n9e;false;167.258;390;195;psychophysics;620055;experimental_data;NULL;NULL;NULL;NULL;14_11_2020_14_21_20
65;33;2;sortStructureCont;bars;7;5667;purple;blue,purple,red,saddlebrown,white,pink,yellow;120,210,300,390,480,570,660;150,180,210,240,270,300,330;32;2;1;ddd9z40nfc89n9e;false;16.725;390;195;psychophysics;627734;experimental_data;NULL;NULL;NULL;NULL;14_11_2020_14_21_20
65;33;2;sortStructureCont;query;7;698;purple;blue,purple,red,saddlebrown,white,pink,yellow;120,210,300,390,480,570,660;150,180,210,240,270,300,330;49;2;1;ddd9z40nfc89n9e;false;16.727;390;195;psychophysics;629440;experimental_data;NULL;NULL;NULL;NULL;14_11_2020_14_21_20
66;28;2;sortStructureCont;bars;6;10676;orange;blue,purple,red,saddlebrown,orange,yellow;120,210,300,390,480,570;150,180,210,240,270,300;32;5;4;ddd9z40nfc89n9e;false;16.725;390;195;psychophysics;642127;experimental_data;NULL;NULL;NULL;NULL;14_11_2020_14_21_20
66;28;2;sortStructureCont;query;6;1169;orange;blue,purple,red,saddlebrown,orange,yellow;120,210,300,390,480,570;150,180,210,240,270,300;52;5;4;ddd9z40nfc89n9e;false;167.244;390;195;psychophysics;644302;experimental_data;NULL;NULL;NULL;NULL;14_11_2020_14_21_20
67;25;2;sortStructureCont;bars;6;3120;purple;black,white,pink,blue,purple,red;120,210,300,390,480,570;150,180,210,240,270,300;32;5;4;ddd9z40nfc89n9e;false;167.252;390;195;psychophysics;649429;experimental_data;NULL;NULL;NULL;NULL;14_11_2020_14_21_20
67;25;2;sortStructureCont;query;6;3498;purple;black,white,pink,blue,purple,red;120,210,300,390,480,570;150,180,210,240,270,300;52;5;4;ddd9z40nfc89n9e;false;167.246;390;195;psychophysics;653935;experimental_data;NULL;NULL;NULL;NULL;14_11_2020_14_21_20
68;1;2;sortStructureCont;bars;1;622;blue;blue;390;330;32;1;1;ddd9z40nfc89n9e;true;16.722;390;195;psychophysics;656566;experimental_data;NULL;NULL;NULL;NULL;14_11_2020_14_21_20
68;1;2;sortStructureCont;query;1;396;blue;blue;390;330;49;1;1;ddd9z40nfc89n9e;true;167.278;390;195;psychophysics;657973;experimental_data;NULL;NULL;NULL;NULL;14_11_2020_14_21_20
69;30;2;sortStructureCont;bars;7;10401;purple;black,saddlebrown,blue,purple,red,white,yellow;120,210,300,390,480,570,660;150,180,210,240,270,300,330;32;4;4;ddd9z40nfc89n9e;true;167.251;390;195;psychophysics;670384;experimental_data;NULL;NULL;NULL;NULL;14_11_2020_14_21_20
69;30;2;sortStructureCont;query;7;1309;purple;black,saddlebrown,blue,purple,red,white,yellow;120,210,300,390,480,570,660;150,180,210,240,270,300,330;52;4;4;ddd9z40nfc89n9e;true;167.252;390;195;psychophysics;672701;experimental_data;NULL;NULL;NULL;NULL;14_11_2020_14_21_20
70;15;2;sortStructureCont;bars;4;2633;blue;blue,purple,red,pink;210,300,390,480;240,270,300,330;32;1;1;ddd9z40nfc89n9e;true;168.314;390;195;psychophysics;677342;experimental_data;NULL;NULL;NULL;NULL;14_11_2020_14_21_20
70;15;2;sortStructureCont;query;4;1544;blue;blue,purple,red,pink;210,300,390,480;240,270,300,330;49;1;1;ddd9z40nfc89n9e;true;167.247;390;195;psychophysics;679893;experimental_data;NULL;NULL;NULL;NULL;14_11_2020_14_21_20
NULL;NULL;0;NULL;end_of_block;NULL;827;NULL;NULL;NULL;NULL;32;NULL;NULL;ddd9z40nfc89n9e;NULL;NULL;NULL;NULL;html-keyboard-response;681726;experimental_data;681754;113.626;0.685714;NULL;14_11_2020_14_21_20
71;30;3;queryStructureCont;bars;7;4161;white;yellow,green,orange,pink,red,blue,white;120,210,300,390,480,570,660;150,180,210,240,270,300,330;32;7;5;ddd9z40nfc89n9e;false;167.253;390;195;psychophysics;686893;experimental_data;NULL;NULL;NULL;NULL;14_11_2020_14_21_20
71;30;3;queryStructureCont;query;7;1169;white;yellow,green,orange,pink,red,blue,white;120,210,300,390,480,570,660;150,180,210,240,270,300,330;53;7;5;ddd9z40nfc89n9e;false;167.251;390;195;psychophysics;689069;experimental_data;NULL;NULL;NULL;NULL;14_11_2020_14_21_20
72;22;3;queryStructureCont;bars;5;6313;black;white,green,yellow,blue,black;210,300,390,480,570;210,240,270,300,330;32;5;4;ddd9z40nfc89n9e;false;167.249;390;195;psychophysics;697390;experimental_data;NULL;NULL;NULL;NULL;14_11_2020_14_21_20
72;22;3;queryStructureCont;query;5;1053;black;white,green,yellow,blue,black;210,300,390,480,570;210,240,270,300,330;52;5;4;ddd9z40nfc89n9e;false;167.257;390;195;psychophysics;699453;experimental_data;NULL;NULL;NULL;NULL;14_11_2020_14_21_20
73;16;3;queryStructureCont;bars;4;15081;saddlebrown;blue,red,purple,saddlebrown;210,300,390,480;150,180,210,240;32;4;4;ddd9z40nfc89n9e;true;167.249;390;195;psychophysics;716543;experimental_data;NULL;NULL;NULL;NULL;14_11_2020_14_21_20
73;16;3;queryStructureCont;query;4;1174;saddlebrown;blue,red,purple,saddlebrown;210,300,390,480;150,180,210,240;52;4;4;ddd9z40nfc89n9e;true;167.258;390;195;psychophysics;718725;experimental_data;NULL;NULL;NULL;NULL;14_11_2020_14_21_20
74;28;3;queryStructureCont;bars;6;25007;orange;pink,white,yellow,purple,black,orange;120,210,300,390,480,570;150,180,210,240,270,300;32;6;4;ddd9z40nfc89n9e;false;16.725;390;195;psychophysics;745742;experimental_data;NULL;NULL;NULL;NULL;14_11_2020_14_21_20
74;28;3;queryStructureCont;query;6;1217;orange;pink,white,yellow,purple,black,orange;120,210,300,390,480,570;150,180,210,240,270,300;52;6;4;ddd9z40nfc89n9e;false;16.725;390;195;psychophysics;747965;experimental_data;NULL;NULL;NULL;NULL;14_11_2020_14_21_20
75;18;3;queryStructureCont;bars;4;5817;orange;purple,red,yellow,orange;210,300,390,480;180,210,240,270;32;4;4;ddd9z40nfc89n9e;true;167.251;390;195;psychophysics;755789;experimental_data;NULL;NULL;NULL;NULL;14_11_2020_14_21_20
75;18;3;queryStructureCont;query;4;1001;orange;purple,red,yellow,orange;210,300,390,480;180,210,240,270;52;4;4;ddd9z40nfc89n9e;true;167.268;390;195;psychophysics;757797;experimental_data;NULL;NULL;NULL;NULL;14_11_2020_14_21_20
76;7;3;queryStructureCont;bars;2;617;purple;blue,purple;300,39;210,24;32;2;2;ddd9z40nfc89n9e;true;167.273;390;195;psychophysics;760421;experimental_data;NULL;NULL;NULL;NULL;14_11_2020_14_21_20
76;7;3;queryStructureCont;query;2;513;purple;blue,purple;300,39;210,24;50;2;2;ddd9z40nfc89n9e;true;167.222;390;195;psychophysics;761940;experimental_data;NULL;NULL;NULL;NULL;14_11_2020_14_21_20
77;23;3;queryStructureCont;bars;5;9448;pink;white,green,saddlebrown,yellow,pink;210,300,390,480,570;210,240,270,300,330;32;5;4;ddd9z40nfc89n9e;false;167.251;390;195;psychophysics;773398;experimental_data;NULL;NULL;NULL;NULL;14_11_2020_14_21_20
77;23;3;queryStructureCont;query;5;953;pink;white,green,saddlebrown,yellow,pink;210,300,390,480,570;210,240,270,300,330;52;5;4;ddd9z40nfc89n9e;false;167.256;390;195;psychophysics;775357;experimental_data;NULL;NULL;NULL;NULL;14_11_2020_14_21_20
78;24;3;queryStructureCont;bars;5;4193;white;black,purple,blue,orange,white;210,300,390,480,570;180,210,240,270,300;32;5;4;ddd9z40nfc89n9e;false;16.725;390;195;psychophysics;781558;experimental_data;NULL;NULL;NULL;NULL;14_11_2020_14_21_20
78;24;3;queryStructureCont;query;5;1082;white;black,purple,blue,orange,white;210,300,390,480,570;180,210,240,270,300;52;5;4;ddd9z40nfc89n9e;false;16.724;390;195;psychophysics;783648;experimental_data;NULL;NULL;NULL;NULL;14_11_2020_14_21_20
79;1;3;queryStructureCont;bars;1;13;green;green;390;330;32;1;1;ddd9z40nfc89n9e;true;NULL;390;195;psychophysics;785671;experimental_data;NULL;NULL;NULL;NULL;14_11_2020_14_21_20
79;1;3;queryStructureCont;query;1;311;green;green;390;330;49;1;1;ddd9z40nfc89n9e;true;167.247;390;195;psychophysics;786989;experimental_data;NULL;NULL;NULL;NULL;14_11_2020_14_21_20
80;33;3;queryStructureCont;bars;7;35774;black;purple,saddlebrown,pink,yellow,blue,green,black;120,210,300,390,480,570,660;150,180,210,240,270,300,330;32;7;4;ddd9z40nfc89n9e;false;167.249;390;195;psychophysics;824773;experimental_data;NULL;NULL;NULL;NULL;14_11_2020_14_21_20
80;33;3;queryStructureCont;query;7;1239;black;purple,saddlebrown,pink,yellow,blue,green,black;120,210,300,390,480,570,660;150,180,210,240,270,300,330;52;7;4;ddd9z40nfc89n9e;false;169.557;390;195;psychophysics;827020;experimental_data;NULL;NULL;NULL;NULL;14_11_2020_14_21_20
81;5;3;queryStructureCont;bars;2;14344;pink;saddlebrown,pink;300,39;300,33;32;2;2;ddd9z40nfc89n9e;true;800.747;390;195;psychophysics;843373;experimental_data;NULL;NULL;NULL;NULL;14_11_2020_14_21_20
81;5;3;queryStructureCont;query;2;457;pink;saddlebrown,pink;300,39;300,33;50;2;2;ddd9z40nfc89n9e;true;167.249;390;195;psychophysics;844836;experimental_data;NULL;NULL;NULL;NULL;14_11_2020_14_21_20
82;0;3;queryStructureCont;bars;1;617;red;red;390;210;32;1;1;ddd9z40nfc89n9e;true;16.724;390;195;psychophysics;847461;experimental_data;NULL;NULL;NULL;NULL;14_11_2020_14_21_20
82;0;3;queryStructureCont;query;1;328;red;red;390;210;49;1;1;ddd9z40nfc89n9e;true;167.263;390;195;psychophysics;848796;experimental_data;NULL;NULL;NULL;NULL;14_11_2020_14_21_20
83;27;3;queryStructureCont;bars;6;271445;black;yellow,green,purple,white,saddlebrown,black;120,210,300,390,480,570;180,210,240,270,300,330;32;6;5;ddd9z40nfc89n9e;false;995.779;390;195;psychophysics;1123106;experimental_data;NULL;NULL;NULL;NULL;14_11_2020_14_21_20
83;27;3;queryStructureCont;query;6;1369;black;yellow,green,purple,white,saddlebrown,black;120,210,300,390,480,570;180,210,240,270,300,330;53;6;5;ddd9z40nfc89n9e;false;167.263;390;195;psychophysics;1125481;experimental_data;NULL;NULL;NULL;NULL;14_11_2020_14_21_20
84;31;3;queryStructureCont;bars;7;344;red;purple,yellow,saddlebrown,black,white,pink,red;120,210,300,390,480,570,660;150,180,210,240,270,300,330;32;7;5;ddd9z40nfc89n9e;false;167.296;390;195;psychophysics;1127833;experimental_data;NULL;NULL;NULL;NULL;14_11_2020_14_21_20
84;31;3;queryStructureCont;query;7;1057;red;purple,yellow,saddlebrown,black,white,pink,red;120,210,300,390,480,570,660;150,180,210,240,270,300,330;53;7;5;ddd9z40nfc89n9e;false;167.258;390;195;psychophysics;1129897;experimental_data;NULL;NULL;NULL;NULL;14_11_2020_14_21_20
85;3;3;queryStructureCont;bars;1;512;pink;pink;390;300;32;1;1;ddd9z40nfc89n9e;true;167.272;390;195;psychophysics;1132419;experimental_data;NULL;NULL;NULL;NULL;14_11_2020_14_21_20
85;3;3;queryStructureCont;query;1;370;pink;pink;390;300;49;1;1;ddd9z40nfc89n9e;true;167.295;390;195;psychophysics;1133795;experimental_data;NULL;NULL;NULL;NULL;14_11_2020_14_21_20
86;12;3;queryStructureCont;bars;3;2007;black;blue,pink,black;300,390,480;240,270,300;32;3;3;ddd9z40nfc89n9e;true;167.244;390;195;psychophysics;1137810;experimental_data;NULL;NULL;NULL;NULL;14_11_2020_14_21_20
86;12;3;queryStructureCont;query;3;1034;black;blue,pink,black;300,390,480;240,270,300;51;3;3;ddd9z40nfc89n9e;true;167.211;390;195;psychophysics;1139850;experimental_data;NULL;NULL;NULL;NULL;14_11_2020_14_21_20
87;32;3;queryStructureCont;bars;7;17321;black;orange,yellow,saddlebrown,blue,red,purple,black;120,210,300,390,480,570,660;150,180,210,240,270,300,330;32;7;5;ddd9z40nfc89n9e;false;16.725;390;195;psychophysics;1159179;experimental_data;NULL;NULL;NULL;NULL;14_11_2020_14_21_20
87;32;3;queryStructureCont;query;7;1344;black;orange,yellow,saddlebrown,blue,red,purple,black;120,210,300,390,480,570,660;150,180,210,240,270,300,330;53;7;5;ddd9z40nfc89n9e;false;167.263;390;195;psychophysics;1161530;experimental_data;NULL;NULL;NULL;NULL;14_11_2020_14_21_20
88;15;3;queryStructureCont;bars;4;52672;pink;red,white,orange,pink;210,300,390,480;240,270,300,330;32;4;3;ddd9z40nfc89n9e;false;159.064;390;195;psychophysics;1216209;experimental_data;NULL;NULL;NULL;NULL;14_11_2020_14_21_20
88;15;3;queryStructureCont;query;4;1385;pink;red,white,orange,pink;210,300,390,480;240,270,300,330;51;4;3;ddd9z40nfc89n9e;false;167.259;390;195;psychophysics;1218602;experimental_data;NULL;NULL;NULL;NULL;14_11_2020_14_21_20
89;26;3;queryStructureCont;bars;6;8301;red;green,saddlebrown,orange,white,yellow,red;120,210,300,390,480,570;150,180,210,240,270,300;32;6;5;ddd9z40nfc89n9e;false;167.253;390;195;psychophysics;1228914;experimental_data;NULL;NULL;NULL;NULL;14_11_2020_14_21_20
89;26;3;queryStructureCont;query;6;1304;red;green,saddlebrown,orange,white,yellow,red;120,210,300,390,480,570;150,180,210,240,270,300;53;6;5;ddd9z40nfc89n9e;false;16.724;390;195;psychophysics;1231225;experimental_data;NULL;NULL;NULL;NULL;14_11_2020_14_21_20
90;20;3;queryStructureCont;bars;5;2788;red;black,saddlebrown,white,blue,red;210,300,390,480,570;180,210,240,270,300;32;5;5;ddd9z40nfc89n9e;true;167.253;390;195;psychophysics;1236025;experimental_data;NULL;NULL;NULL;NULL;14_11_2020_14_21_20
90;20;3;queryStructureCont;query;5;1239;red;black,saddlebrown,white,blue,red;210,300,390,480,570;180,210,240,270,300;53;5;5;ddd9z40nfc89n9e;true;167.263;390;195;psychophysics;1238273;experimental_data;NULL;NULL;NULL;NULL;14_11_2020_14_21_20
91;25;3;queryStructureCont;bars;6;3679;purple;pink,blue,green,yellow,black,purple;120,210,300,390,480,570;150,180,210,240,270,300;32;6;5;ddd9z40nfc89n9e;false;167.239;390;195;psychophysics;1243961;experimental_data;NULL;NULL;NULL;NULL;14_11_2020_14_21_20
91;25;3;queryStructureCont;query;6;1320;purple;pink,blue,green,yellow,black,purple;120,210,300,390,480,570;150,180,210,240,270,300;53;6;5;ddd9z40nfc89n9e;false;167.263;390;195;psychophysics;1246289;experimental_data;NULL;NULL;NULL;NULL;14_11_2020_14_21_20
92;2;3;queryStructureCont;bars;1;2626;red;red;390;300;32;1;1;ddd9z40nfc89n9e;true;17.191;390;195;psychophysics;1251282;experimental_data;NULL;NULL;NULL;NULL;14_11_2020_14_21_20
92;2;3;queryStructureCont;query;1;319;red;red;390;300;49;1;1;ddd9z40nfc89n9e;true;167.262;390;195;psychophysics;1252608;experimental_data;NULL;NULL;NULL;NULL;14_11_2020_14_21_20
93;10;3;queryStructureCont;bars;3;1522;saddlebrown;blue,red,saddlebrown;300,390,480;270,300,330;32;3;3;ddd9z40nfc89n9e;true;167.248;390;195;psychophysics;1256137;experimental_data;NULL;NULL;NULL;NULL;14_11_2020_14_21_20
93;10;3;queryStructureCont;query;3;888;saddlebrown;blue,red,saddlebrown;300,390,480;270,300,330;51;3;3;ddd9z40nfc89n9e;true;16.725;390;195;psychophysics;1258032;experimental_data;NULL;NULL;NULL;NULL;14_11_2020_14_21_20
94;21;3;queryStructureCont;bars;5;127;green;red,white,blue,purple,green;210,300,390,480,570;180,210,240,270,300;32;5;5;ddd9z40nfc89n9e;true;167.219;390;195;psychophysics;1260168;experimental_data;NULL;NULL;NULL;NULL;14_11_2020_14_21_20
94;21;3;queryStructureCont;query;5;1193;green;red,white,blue,purple,green;210,300,390,480,570;180,210,240,270,300;53;5;5;ddd9z40nfc89n9e;true;167.249;390;195;psychophysics;1262369;experimental_data;NULL;NULL;NULL;NULL;14_11_2020_14_21_20
95;8;3;queryStructureCont;bars;2;23580;red;black,red;300,39;180,21;32;2;2;ddd9z40nfc89n9e;true;291.138;390;195;psychophysics;1287962;experimental_data;NULL;NULL;NULL;NULL;14_11_2020_14_21_20
95;8;3;queryStructureCont;query;2;609;red;black,red;300,39;180,21;50;2;2;ddd9z40nfc89n9e;true;167.241;390;195;psychophysics;1289577;experimental_data;NULL;NULL;NULL;NULL;14_11_2020_14_21_20
96;19;3;queryStructureCont;bars;4;2000;blue;green,yellow,saddlebrown,blue;210,300,390,480;180,210,240,270;32;4;4;ddd9z40nfc89n9e;true;167.253;390;195;psychophysics;1293586;experimental_data;NULL;NULL;NULL;NULL;14_11_2020_14_21_20
96;19;3;queryStructureCont;query;4;1290;blue;green,yellow,saddlebrown,blue;210,300,390,480;180,210,240,270;52;4;4;ddd9z40nfc89n9e;true;167.254;390;195;psychophysics;1295881;experimental_data;NULL;NULL;NULL;NULL;14_11_2020_14_21_20
97;17;3;queryStructureCont;bars;4;32438;yellow;purple,white,red,yellow;210,300,390,480;180,210,240,270;32;4;4;ddd9z40nfc89n9e;true;170.167;390;195;psychophysics;1331097;experimental_data;NULL;NULL;NULL;NULL;14_11_2020_14_21_20
97;17;3;queryStructureCont;query;4;1066;yellow;purple,white,red,yellow;210,300,390,480;180,210,240,270;52;4;4;ddd9z40nfc89n9e;true;167.276;390;195;psychophysics;1333170;experimental_data;NULL;NULL;NULL;NULL;14_11_2020_14_21_20
98;13;3;queryStructureCont;bars;3;1501;orange;blue,black,orange;300,390,480;240,270,300;32;3;3;ddd9z40nfc89n9e;true;167.249;390;195;psychophysics;1336682;experimental_data;NULL;NULL;NULL;NULL;14_11_2020_14_21_20
98;13;3;queryStructureCont;query;3;1097;orange;blue,black,orange;300,390,480;240,270,300;51;3;3;ddd9z40nfc89n9e;true;167.241;390;195;psychophysics;1338785;experimental_data;NULL;NULL;NULL;NULL;14_11_2020_14_21_20
99;4;3;queryStructureCont;bars;1;455;red;red;390;180;32;1;1;ddd9z40nfc89n9e;true;167.263;390;195;psychophysics;1341249;experimental_data;NULL;NULL;NULL;NULL;14_11_2020_14_21_20
99;4;3;queryStructureCont;query;1;241;red;red;390;180;49;1;1;ddd9z40nfc89n9e;true;167.236;390;195;psychophysics;1342497;experimental_data;NULL;NULL;NULL;NULL;14_11_2020_14_21_20
100;34;3;queryStructureCont;bars;7;4229;purple;pink,blue,orange,white,red,black,purple;120,210,300,390,480,570,660;150,180,210,240,270,300,330;32;7;4;ddd9z40nfc89n9e;false;167.247;390;195;psychophysics;1348753;experimental_data;NULL;NULL;NULL;NULL;14_11_2020_14_21_20
100;34;3;queryStructureCont;query;7;701;purple;pink,blue,orange,white,red,black,purple;120,210,300,390,480,570,660;150,180,210,240,270,300,330;52;7;4;ddd9z40nfc89n9e;false;167.258;390;195;psychophysics;1350465;experimental_data;NULL;NULL;NULL;NULL;14_11_2020_14_21_20
101;14;3;queryStructureCont;bars;3;19030;white;green,purple,white;300,390,480;240,270,300;32;3;3;ddd9z40nfc89n9e;true;98.53;390;195;psychophysics;1371505;experimental_data;NULL;NULL;NULL;NULL;14_11_2020_14_21_20
101;14;3;queryStructureCont;query;3;1041;white;green,purple,white;300,390,480;240,270,300;51;3;3;ddd9z40nfc89n9e;true;167.246;390;195;psychophysics;1373552;experimental_data;NULL;NULL;NULL;NULL;14_11_2020_14_21_20
102;11;3;queryStructureCont;bars;3;12871;saddlebrown;orange,yellow,saddlebrown;300,390,480;240,270,300;32;3;3;ddd9z40nfc89n9e;true;293.211;390;195;psychophysics;1388529;experimental_data;NULL;NULL;NULL;NULL;14_11_2020_14_21_20
102;11;3;queryStructureCont;query;3;1217;saddlebrown;orange,yellow,saddlebrown;300,390,480;240,270,300;51;3;3;ddd9z40nfc89n9e;true;16.725;390;195;psychophysics;1390754;experimental_data;NULL;NULL;NULL;NULL;14_11_2020_14_21_20
103;9;3;queryStructureCont;bars;2;612;green;red,green;300,39;300,33;32;2;2;ddd9z40nfc89n9e;true;167.203;390;195;psychophysics;1393377;experimental_data;NULL;NULL;NULL;NULL;14_11_2020_14_21_20
103;9;3;queryStructureCont;query;2;847;green;red,green;300,39;300,33;50;2;2;ddd9z40nfc89n9e;true;167.249;390;195;psychophysics;1395233;experimental_data;NULL;NULL;NULL;NULL;14_11_2020_14_21_20
104;6;3;queryStructureCont;bars;2;579;yellow;red,yellow;300,39;180,21;32;2;2;ddd9z40nfc89n9e;true;167.283;390;195;psychophysics;1397825;experimental_data;NULL;NULL;NULL;NULL;14_11_2020_14_21_20
104;6;3;queryStructureCont;query;2;718;yellow;red,yellow;300,39;180,21;50;2;2;ddd9z40nfc89n9e;true;167.231;390;195;psychophysics;1399553;experimental_data;NULL;NULL;NULL;NULL;14_11_2020_14_21_20
105;29;3;queryStructureCont;bars;6;6101;pink;red,black,saddlebrown,blue,orange,pink;120,210,300,390,480,570;150,180,210,240,270,300;32;6;4;ddd9z40nfc89n9e;false;22.716;390;195;psychophysics;1407665;experimental_data;NULL;NULL;NULL;NULL;14_11_2020_14_21_20
105;29;3;queryStructureCont;query;6;1161;pink;red,black,saddlebrown,blue,orange,pink;120,210,300,390,480,570;150,180,210,240,270,300;52;6;4;ddd9z40nfc89n9e;false;167.254;390;195;psychophysics;1409833;experimental_data;NULL;NULL;NULL;NULL;14_11_2020_14_21_20
NULL;NULL;0;NULL;end_of_block;NULL;984;NULL;NULL;NULL;NULL;32;NULL;NULL;ddd9z40nfc89n9e;NULL;NULL;NULL;NULL;html-keyboard-response;1411824;experimental_data;1411851;235.308;0.6;NULL;14_11_2020_14_21_20
106;17;4;queryStructureExp;bars;4;7425;purple;green,red,orange,purple;390,480,210,300;180,210,240,270;32;4;2;ddd9z40nfc89n9e;false;25.965;390;195;psychophysics;1420258;experimental_data;NULL;NULL;NULL;NULL;14_11_2020_14_21_20
106;17;4;queryStructureExp;query;4;433;purple;green,red,orange,purple;390,480,210,300;180,210,240,270;50;4;2;ddd9z40nfc89n9e;false;16.722;390;195;psychophysics;1421697;experimental_data;NULL;NULL;NULL;NULL;14_11_2020_14_21_20
107;6;4;queryStructureExp;bars;2;2183;yellow;purple,yellow;390,3;180,21;32;2;1;ddd9z40nfc89n9e;false;167.252;390;195;psychophysics;1425888;experimental_data;NULL;NULL;NULL;NULL;14_11_2020_14_21_20
107;6;4;queryStructureExp;query;2;372;yellow;purple,yellow;390,3;180,21;49;2;1;ddd9z40nfc89n9e;false;167.231;390;195;psychophysics;1427265;experimental_data;NULL;NULL;NULL;NULL;14_11_2020_14_21_20
108;3;4;queryStructureExp;bars;1;620;red;red;390;300;32;1;1;ddd9z40nfc89n9e;true;167.265;390;195;psychophysics;1429896;experimental_data;NULL;NULL;NULL;NULL;14_11_2020_14_21_20
108;3;4;queryStructureExp;query;1;282;red;red;390;300;49;1;1;ddd9z40nfc89n9e;true;167.314;390;195;psychophysics;1431184;experimental_data;NULL;NULL;NULL;NULL;14_11_2020_14_21_20
109;34;4;queryStructureExp;bars;7;8048;blue;pink,saddlebrown,orange,purple,white,red,blue;570,480,390,210,300,660,120;150,180,210,240,270,300,330;32;7;1;ddd9z40nfc89n9e;false;167.248;390;195;psychophysics;1441240;experimental_data;NULL;NULL;NULL;NULL;14_11_2020_14_21_20
109;34;4;queryStructureExp;query;7;378;blue;pink,saddlebrown,orange,purple,white,red,blue;570,480,390,210,300,660,120;150,180,210,240,270,300,330;49;7;1;ddd9z40nfc89n9e;false;167.246;390;195;psychophysics;1442624;experimental_data;NULL;NULL;NULL;NULL;14_11_2020_14_21_20
110;16;4;queryStructureExp;bars;4;2193;white;saddlebrown,orange,yellow,white;210,480,390,300;150,180,210,240;32;4;2;ddd9z40nfc89n9e;false;167.239;390;195;psychophysics;1446824;experimental_data;NULL;NULL;NULL;NULL;14_11_2020_14_21_20
110;16;4;queryStructureExp;query;4;2546;white;saddlebrown,orange,yellow,white;210,480,390,300;150,180,210,240;50;4;2;ddd9z40nfc89n9e;false;167.253;390;195;psychophysics;1450376;experimental_data;NULL;NULL;NULL;NULL;14_11_2020_14_21_20
111;4;4;queryStructureExp;bars;1;6837;blue;blue;390;180;32;1;1;ddd9z40nfc89n9e;true;467.384;390;195;psychophysics;1459224;experimental_data;NULL;NULL;NULL;NULL;14_11_2020_14_21_20
111;4;4;queryStructureExp;query;1;405;blue;blue;390;180;49;1;1;ddd9z40nfc89n9e;true;167.241;390;195;psychophysics;1460640;experimental_data;NULL;NULL;NULL;NULL;14_11_2020_14_21_20
112;26;4;queryStructureExp;bars;6;4753;yellow;saddlebrown,red,blue,purple,orange,yellow;390,570,210,480,300,120;150,180,210,240,270,300;32;6;1;ddd9z40nfc89n9e;false;16.725;390;195;psychophysics;1467401;experimental_data;NULL;NULL;NULL;NULL;14_11_2020_14_21_20
112;26;4;queryStructureExp;query;6;337;yellow;saddlebrown,red,blue,purple,orange,yellow;390,570,210,480,300,120;150,180,210,240,270,300;49;6;1;ddd9z40nfc89n9e;false;167.227;390;195;psychophysics;1468745;experimental_data;NULL;NULL;NULL;NULL;14_11_2020_14_21_20
113;11;4;queryStructureExp;bars;3;1493;yellow;saddlebrown,red,yellow;300,480,390;240,270,300;32;3;2;ddd9z40nfc89n9e;false;167.245;390;195;psychophysics;1472248;experimental_data;NULL;NULL;NULL;NULL;14_11_2020_14_21_20
113;11;4;queryStructureExp;query;3;882;yellow;saddlebrown,red,yellow;300,480,390;240,270,300;50;3;2;ddd9z40nfc89n9e;false;16.727;390;195;psychophysics;1474135;experimental_data;NULL;NULL;NULL;NULL;14_11_2020_14_21_20
114;9;4;queryStructureExp;bars;2;1595;white;orange,white;390,3;300,33;32;2;1;ddd9z40nfc89n9e;false;167.247;390;195;psychophysics;1477737;experimental_data;NULL;NULL;NULL;NULL;14_11_2020_14_21_20
114;9;4;queryStructureExp;query;2;520;white;orange,white;390,3;300,33;49;2;1;ddd9z40nfc89n9e;false;167.261;390;195;psychophysics;1479264;experimental_data;NULL;NULL;NULL;NULL;14_11_2020_14_21_20
115;22;4;queryStructureExp;bars;5;3310;red;saddlebrown,yellow,black,purple,red;300,570,480,390,210;210,240,270,300,330;32;5;1;ddd9z40nfc89n9e;false;167.244;390;195;psychophysics;1484584;experimental_data;NULL;NULL;NULL;NULL;14_11_2020_14_21_20
115;22;4;queryStructureExp;query;5;480;red;saddlebrown,yellow,black,purple,red;300,570,480,390,210;210,240,270,300,330;49;5;1;ddd9z40nfc89n9e;false;16.728;390;195;psychophysics;1486072;experimental_data;NULL;NULL;NULL;NULL;14_11_2020_14_21_20
116;8;4;queryStructureExp;bars;2;663;yellow;pink,yellow;300,39;180,21;32;2;2;ddd9z40nfc89n9e;true;167.264;390;195;psychophysics;1488743;experimental_data;NULL;NULL;NULL;NULL;14_11_2020_14_21_20
116;8;4;queryStructureExp;query;2;568;yellow;pink,yellow;300,39;180,21;50;2;2;ddd9z40nfc89n9e;true;167.236;390;195;psychophysics;1490320;experimental_data;NULL;NULL;NULL;NULL;14_11_2020_14_21_20
117;13;4;queryStructureExp;bars;3;3165;orange;pink,green,orange;480,390,300;240,270,300;32;3;1;ddd9z40nfc89n9e;false;167.249;390;195;psychophysics;1495495;experimental_data;NULL;NULL;NULL;NULL;14_11_2020_14_21_20
117;13;4;queryStructureExp;query;3;905;orange;pink,green,orange;480,390,300;240,270,300;49;3;1;ddd9z40nfc89n9e;false;167.252;390;195;psychophysics;1497407;experimental_data;NULL;NULL;NULL;NULL;14_11_2020_14_21_20
118;15;4;queryStructureExp;bars;4;3182;pink;blue,green,white,pink;480,210,390,300;240,270,300,330;32;4;1;ddd9z40nfc89n9e;false;167.246;390;195;psychophysics;1502600;experimental_data;NULL;NULL;NULL;NULL;14_11_2020_14_21_20
118;15;4;queryStructureExp;query;4;1009;pink;blue,green,white,pink;480,210,390,300;240,270,300,330;49;4;1;ddd9z40nfc89n9e;false;167.245;390;195;psychophysics;1504615;experimental_data;NULL;NULL;NULL;NULL;14_11_2020_14_21_20
119;33;4;queryStructureExp;bars;7;2823;white;pink,purple,saddlebrown,yellow,black,green,white;660,210,120,480,570,390,300;150,180,210,240,270,300,330;32;7;1;ddd9z40nfc89n9e;false;167.246;390;195;psychophysics;1509447;experimental_data;NULL;NULL;NULL;NULL;14_11_2020_14_21_20
119;33;4;queryStructureExp;query;7;490;white;pink,purple,saddlebrown,yellow,black,green,white;660,210,120,480,570,390,300;150,180,210,240,270,300,330;49;7;1;ddd9z40nfc89n9e;false;167.246;390;195;psychophysics;1510943;experimental_data;NULL;NULL;NULL;NULL;14_11_2020_14_21_20
120;23;4;queryStructureExp;bars;5;3743;black;saddlebrown,yellow,white,blue,black;570,300,480,210,390;210,240,270,300,330;32;5;3;ddd9z40nfc89n9e;false;167.251;390;195;psychophysics;1516697;experimental_data;NULL;NULL;NULL;NULL;14_11_2020_14_21_20
120;23;4;queryStructureExp;query;5;1592;black;saddlebrown,yellow,white,blue,black;570,300,480,210,390;210,240,270,300,330;51;5;3;ddd9z40nfc89n9e;false;167.253;390;195;psychophysics;1519296;experimental_data;NULL;NULL;NULL;NULL;14_11_2020_14_21_20
121;0;4;queryStructureExp;bars;1;577;red;red;390;210;32;1;1;ddd9z40nfc89n9e;true;167.226;390;195;psychophysics;1521880;experimental_data;NULL;NULL;NULL;NULL;14_11_2020_14_21_20
121;0;4;queryStructureExp;query;1;17;red;red;390;210;49;1;1;ddd9z40nfc89n9e;true;NULL;390;195;psychophysics;1522906;experimental_data;NULL;NULL;NULL;NULL;14_11_2020_14_21_20
122;25;4;queryStructureExp;bars;6;3134;green;orange,red,black,purple,saddlebrown,green;300,480,120,390,210,570;150,180,210,240,270,300;32;6;5;ddd9z40nfc89n9e;false;167.251;390;195;psychophysics;1528048;experimental_data;NULL;NULL;NULL;NULL;14_11_2020_14_21_20
122;25;4;queryStructureExp;query;6;1639;green;orange,red,black,purple,saddlebrown,green;300,480,120,390,210,570;150,180,210,240,270,300;53;6;5;ddd9z40nfc89n9e;false;167.247;390;195;psychophysics;1530696;experimental_data;NULL;NULL;NULL;NULL;14_11_2020_14_21_20
123;28;4;queryStructureExp;bars;6;15325;black;pink,red,blue,green,white,black;570,300,390,480,120,210;150,180,210,240,270,300;32;6;2;ddd9z40nfc89n9e;false;35.019;390;195;psychophysics;1548031;experimental_data;NULL;NULL;NULL;NULL;14_11_2020_14_21_20
