Trial_index;TrialID;Block;Conditions;Stimulus_type;Number_of_Bars;rt;Query_color;color_sequence;position_sequence;heights;key_press;Correct_Position;response_position;subject_id;correct;avg_frame_time;center_x;center_y;trial_type;time_elapsed;TrialType;timeMs;timeMin;score;reward;date
1;3;1;noStructureExp;bars;4;3942;white;pink,yellow,white,green;390,210,300,480;240,270,300,330;32;3;3;12wz8v33a9awf4m;true;161.373;390;195;psychophysics;127529;practice_trials;NULL;NULL;NULL;NULL;15_11_2020_3_25_50
1;3;1;noStructureExp;query;4;4853;white;pink,yellow,white,green;390,210,300,480;240,270,300,330;51;3;3;12wz8v33a9awf4m;true;711.758;390;195;psychophysics;133386;practice_trial;NULL;NULL;NULL;NULL;15_11_2020_3_25_50
2;1;1;noStructureExp;bars;2;4336;yellow;saddlebrown,yellow;300,39;240,27;32;2;2;12wz8v33a9awf4m;true;713.893;390;195;psychophysics;139730;practice_trials;NULL;NULL;NULL;NULL;15_11_2020_3_25_50
2;1;1;noStructureExp;query;2;1366;yellow;saddlebrown,yellow;300,39;240,27;50;2;2;12wz8v33a9awf4m;true;712.625;390;195;psychophysics;142101;practice_trial;NULL;NULL;NULL;NULL;15_11_2020_3_25_50
3;0;1;noStructureExp;bars;1;1305;pink;pink;390;270;32;1;5;12wz8v33a9awf4m;false;709.624;390;195;psychophysics;145412;practice_trials;NULL;NULL;NULL;NULL;15_11_2020_3_25_50
3;0;1;noStructureExp;query;1;4175;pink;pink;390;270;53;1;5;12wz8v33a9awf4m;false;706.197;390;195;psychophysics;150591;practice_trial;NULL;NULL;NULL;NULL;15_11_2020_3_25_50
4;2;1;noStructureExp;bars;3;12979;saddlebrown;blue,saddlebrown,red;480,390,300;210,240,270;32;2;2;12wz8v33a9awf4m;true;843.355;390;195;psychophysics;165575;practice_trials;NULL;NULL;NULL;NULL;15_11_2020_3_25_50
4;2;1;noStructureExp;query;3;3009;saddlebrown;blue,saddlebrown,red;480,390,300;210,240,270;50;2;2;12wz8v33a9awf4m;true;710.911;390;195;psychophysics;169587;practice_trial;NULL;NULL;NULL;NULL;15_11_2020_3_25_50
5;4;1;noStructureExp;bars;5;4896;blue;blue,orange,green,black,yellow;390,300,210,480,570;210,240,270,300,330;32;1;3;12wz8v33a9awf4m;false;112.131;390;195;psychophysics;176489;practice_trials;NULL;NULL;NULL;NULL;15_11_2020_3_25_50
5;4;1;noStructureExp;query;5;1807;blue;blue,orange,green,black,yellow;390,300,210,480,570;210,240,270,300,330;51;1;3;12wz8v33a9awf4m;false;705.299;390;195;psychophysics;179299;practice_trial;NULL;NULL;NULL;NULL;15_11_2020_3_25_50
6;6;1;noStructureExp;bars;7;4908;black;orange,green,blue,yellow,black,pink,red;300,660,480,390,210,570,120;150,180,210,240,270,300,330;32;5;5;12wz8v33a9awf4m;true;115.252;390;195;psychophysics;186213;practice_trials;NULL;NULL;NULL;NULL;15_11_2020_3_25_50
6;6;1;noStructureExp;query;7;5348;black;orange,green,blue,yellow,black,pink,red;300,660,480,390,210,570,120;150,180,210,240,270,300,330;53;5;5;12wz8v33a9awf4m;true;708.259;390;195;psychophysics;192567;practice_trial;NULL;NULL;NULL;NULL;15_11_2020_3_25_50
7;5;1;noStructureExp;bars;6;5504;green;black,orange,red,green,yellow,blue;120,390,210,570,480,300;150,180,210,240,270,300;32;4;4;12wz8v33a9awf4m;true;100.976;390;195;psychophysics;200076;practice_trials;NULL;NULL;NULL;NULL;15_11_2020_3_25_50
7;5;1;noStructureExp;query;6;4011;green;black,orange,red,green,yellow,blue;120,390,210,570,480,300;150,180,210,240,270,300;52;4;4;12wz8v33a9awf4m;true;710.454;390;195;psychophysics;205092;practice_trial;NULL;NULL;NULL;NULL;15_11_2020_3_25_50
8;6;2;noStructureCont;bars;7;3249;orange;saddlebrown,blue,pink,black,orange,green,red;120,210,300,390,480,570,660;150,180,210,240,270,300,330;32;5;5;12wz8v33a9awf4m;true;136.841;390;195;psychophysics;213253;practice_trials;NULL;NULL;NULL;NULL;15_11_2020_3_25_50
8;6;2;noStructureCont;query;7;3350;orange;saddlebrown,blue,pink,black,orange,green,red;120,210,300,390,480,570,660;150,180,210,240,270,300,330;53;5;5;12wz8v33a9awf4m;true;709.168;390;195;psychophysics;217607;practice_trial;NULL;NULL;NULL;NULL;15_11_2020_3_25_50
9;5;2;noStructureCont;bars;6;3135;orange;saddlebrown,white,black,orange,red,green;120,210,300,390,480,570;150,180,210,240,270,300;32;4;4;12wz8v33a9awf4m;true;166.224;390;195;psychophysics;222749;practice_trials;NULL;NULL;NULL;NULL;15_11_2020_3_25_50
9;5;2;noStructureCont;query;6;1340;orange;saddlebrown,white,black,orange,red,green;120,210,300,390,480,570;150,180,210,240,270,300;52;4;4;12wz8v33a9awf4m;true;709.146;390;195;psychophysics;225094;practice_trial;NULL;NULL;NULL;NULL;15_11_2020_3_25_50
10;2;2;noStructureCont;bars;3;3054;orange;green,orange,pink;300,390,480;210,240,270;32;2;2;12wz8v33a9awf4m;true;152.427;390;195;psychophysics;230154;practice_trials;NULL;NULL;NULL;NULL;15_11_2020_3_25_50
10;2;2;noStructureCont;query;3;887;orange;green,orange,pink;300,390,480;210,240,270;50;2;2;12wz8v33a9awf4m;true;71.116;390;195;psychophysics;232046;practice_trial;NULL;NULL;NULL;NULL;15_11_2020_3_25_50
11;1;2;noStructureCont;bars;2;2519;green;pink,green;300,39;240,27;32;2;2;12wz8v33a9awf4m;true;149.636;390;195;psychophysics;236573;practice_trials;NULL;NULL;NULL;NULL;15_11_2020_3_25_50
11;1;2;noStructureCont;query;2;2351;green;pink,green;300,39;240,27;50;2;2;12wz8v33a9awf4m;true;713.461;390;195;psychophysics;239928;practice_trial;NULL;NULL;NULL;NULL;15_11_2020_3_25_50
12;0;2;noStructureCont;bars;1;1617;black;black;390;270;32;1;1;12wz8v33a9awf4m;true;100.695;390;195;psychophysics;243553;practice_trials;NULL;NULL;NULL;NULL;15_11_2020_3_25_50
12;0;2;noStructureCont;query;1;583;black;black;390;270;49;1;1;12wz8v33a9awf4m;true;720.468;390;195;psychophysics;245141;practice_trial;NULL;NULL;NULL;NULL;15_11_2020_3_25_50
13;4;2;noStructureCont;bars;5;2590;black;black,pink,white,red,orange;210,300,390,480,570;210,240,270,300,330;32;1;1;12wz8v33a9awf4m;true;71.163;390;195;psychophysics;249737;practice_trials;NULL;NULL;NULL;NULL;15_11_2020_3_25_50
13;4;2;noStructureCont;query;5;827;black;black,pink,white,red,orange;210,300,390,480,570;210,240,270,300,330;49;1;1;12wz8v33a9awf4m;true;706.315;390;195;psychophysics;251569;practice_trial;NULL;NULL;NULL;NULL;15_11_2020_3_25_50
14;3;2;noStructureCont;bars;4;1674;purple;orange,white,purple,yellow;210,300,390,480;240,270,300,330;32;3;3;12wz8v33a9awf4m;true;700.253;390;195;psychophysics;255248;practice_trials;NULL;NULL;NULL;NULL;15_11_2020_3_25_50
14;3;2;noStructureCont;query;4;895;purple;orange,white,purple,yellow;210,300,390,480;240,270,300,330;51;3;3;12wz8v33a9awf4m;true;722.561;390;195;psychophysics;257147;practice_trial;NULL;NULL;NULL;NULL;15_11_2020_3_25_50
NULL;NULL;NULL;NULL;end_of_practice;NULL;3570;NULL;NULL;NULL;NULL;32;NULL;NULL;12wz8v33a9awf4m;NULL;NULL;NULL;NULL;html-keyboard-response;261721;practice_trials;261728;436.213;0.857143;NULL;15_11_2020_3_25_50
1;2;1;noStructureExp;bars;3;3626;pink;green,purple,pink;480,300,390;210,240,270;32;3;3;zpdbjkc3r3564ye;true;166.724;390;195;psychophysics;119275;practice_trials;NULL;NULL;NULL;NULL;15_11_2020_3_36_21
1;2;1;noStructureExp;query;3;2998;pink;green,purple,pink;480,300,390;210,240,270;51;3;3;zpdbjkc3r3564ye;true;16.861;390;195;psychophysics;123283;practice_trial;NULL;NULL;NULL;NULL;15_11_2020_3_36_21
2;5;1;noStructureExp;bars;6;6548;white;red,purple,yellow,white,blue,pink;390,120,210,480,300,570;180,210,240,270,300,330;32;4;4;zpdbjkc3r3564ye;true;167.157;390;195;psychophysics;131841;practice_trials;NULL;NULL;NULL;NULL;15_11_2020_3_36_21
2;5;1;noStructureExp;query;6;3382;white;red,purple,yellow,white,blue,pink;390,120,210,480,300,570;180,210,240,270,300,330;52;4;4;zpdbjkc3r3564ye;true;166.724;390;195;psychophysics;136234;practice_trial;NULL;NULL;NULL;NULL;15_11_2020_3_36_21
3;1;1;noStructureExp;bars;2;1981;orange;red,orange;390,3;150,18;32;2;2;zpdbjkc3r3564ye;true;166.734;390;195;psychophysics;140225;practice_trials;NULL;NULL;NULL;NULL;15_11_2020_3_36_21
3;1;1;noStructureExp;query;2;1139;orange;red,orange;390,3;150,18;50;2;2;zpdbjkc3r3564ye;true;166.734;390;195;psychophysics;142371;practice_trial;NULL;NULL;NULL;NULL;15_11_2020_3_36_21
4;3;1;noStructureExp;bars;4;4639;purple;blue,purple,saddlebrown,pink;480,300,210,390;180,210,240,270;32;2;2;zpdbjkc3r3564ye;true;166.728;390;195;psychophysics;149017;practice_trials;NULL;NULL;NULL;NULL;15_11_2020_3_36_21
4;3;1;noStructureExp;query;4;1525;purple;blue,purple,saddlebrown,pink;480,300,210,390;180,210,240,270;50;2;2;zpdbjkc3r3564ye;true;166.736;390;195;psychophysics;151552;practice_trial;NULL;NULL;NULL;NULL;15_11_2020_3_36_21
5;4;1;noStructureExp;bars;5;7077;purple;purple,saddlebrown,pink,red,blue;210,480,390,570,300;180,210,240,270,300;32;1;1;zpdbjkc3r3564ye;true;166.729;390;195;psychophysics;160642;practice_trials;NULL;NULL;NULL;NULL;15_11_2020_3_36_21
5;4;1;noStructureExp;query;5;1296;purple;purple,saddlebrown,pink,red,blue;210,480,390,570,300;180,210,240,270,300;49;1;1;zpdbjkc3r3564ye;true;166.723;390;195;psychophysics;162947;practice_trial;NULL;NULL;NULL;NULL;15_11_2020_3_36_21
6;0;1;noStructureExp;bars;1;1615;orange;orange;390;150;32;1;1;zpdbjkc3r3564ye;true;166.727;390;195;psychophysics;166569;practice_trials;NULL;NULL;NULL;NULL;15_11_2020_3_36_21
6;0;1;noStructureExp;query;1;1851;orange;orange;390;150;49;1;1;zpdbjkc3r3564ye;true;166.739;390;195;psychophysics;169425;practice_trial;NULL;NULL;NULL;NULL;15_11_2020_3_36_21
7;6;1;noStructureExp;bars;7;9134;blue;black,orange,yellow,green,saddlebrown,blue,pink;210,480,390,120,570,300,660;150,180,210,240,270,300,330;32;6;6;zpdbjkc3r3564ye;true;166.729;390;195;psychophysics;180570;practice_trials;NULL;NULL;NULL;NULL;15_11_2020_3_36_21
7;6;1;noStructureExp;query;7;4841;blue;black,orange,yellow,green,saddlebrown,blue,pink;210,480,390,120,570,300,660;150,180,210,240,270,300,330;54;6;6;zpdbjkc3r3564ye;true;167.309;390;195;psychophysics;186416;practice_trial;NULL;NULL;NULL;NULL;15_11_2020_3_36_21
8;1;2;noStructureCont;bars;2;1324;orange;pink,orange;300,39;150,18;32;2;2;zpdbjkc3r3564ye;true;166.732;390;195;psychophysics;193000;practice_trials;NULL;NULL;NULL;NULL;15_11_2020_3_36_21
8;1;2;noStructureCont;query;2;982;orange;pink,orange;300,39;150,18;50;2;2;zpdbjkc3r3564ye;true;166.717;390;195;psychophysics;194992;practice_trial;NULL;NULL;NULL;NULL;15_11_2020_3_36_21
9;5;2;noStructureCont;bars;6;6930;red;white,blue,saddlebrown,red,yellow,orange;120,210,300,390,480,570;180,210,240,270,300,330;32;4;4;zpdbjkc3r3564ye;true;166.728;390;195;psychophysics;203929;practice_trials;NULL;NULL;NULL;NULL;15_11_2020_3_36_21
9;5;2;noStructureCont;query;6;2465;red;white,blue,saddlebrown,red,yellow,orange;120,210,300,390,480,570;180,210,240,270,300,330;52;4;4;zpdbjkc3r3564ye;true;166.729;390;195;psychophysics;207400;practice_trial;NULL;NULL;NULL;NULL;15_11_2020_3_36_21
10;3;2;noStructureCont;bars;4;2216;blue;yellow,blue,black,orange;210,300,390,480;180,210,240,270;32;2;2;zpdbjkc3r3564ye;true;166.726;390;195;psychophysics;211623;practice_trials;NULL;NULL;NULL;NULL;15_11_2020_3_36_21
10;3;2;noStructureCont;query;4;1725;blue;yellow,blue,black,orange;210,300,390,480;180,210,240,270;50;2;2;zpdbjkc3r3564ye;true;166.727;390;195;psychophysics;214360;practice_trial;NULL;NULL;NULL;NULL;15_11_2020_3_36_21
11;4;2;noStructureCont;bars;5;5649;orange;orange,red,blue,black,white;210,300,390,480,570;180,210,240,270,300;32;1;1;zpdbjkc3r3564ye;true;167.218;390;195;psychophysics;222020;practice_trials;NULL;NULL;NULL;NULL;15_11_2020_3_36_21
11;4;2;noStructureCont;query;5;1055;orange;orange,red,blue,black,white;210,300,390,480,570;180,210,240,270,300;49;1;1;zpdbjkc3r3564ye;true;166.722;390;195;psychophysics;224081;practice_trial;NULL;NULL;NULL;NULL;15_11_2020_3_36_21
12;2;2;noStructureCont;bars;3;1960;pink;green,white,pink;300,390,480;210,240,270;32;3;3;zpdbjkc3r3564ye;true;166.727;390;195;psychophysics;228049;practice_trials;NULL;NULL;NULL;NULL;15_11_2020_3_36_21
12;2;2;noStructureCont;query;3;1167;pink;green,white,pink;300,390,480;210,240,270;51;3;3;zpdbjkc3r3564ye;true;166.731;390;195;psychophysics;230225;practice_trial;NULL;NULL;NULL;NULL;15_11_2020_3_36_21
13;0;2;noStructureCont;bars;1;1459;red;red;390;150;32;1;1;zpdbjkc3r3564ye;true;166.713;390;195;psychophysics;233691;practice_trials;NULL;NULL;NULL;NULL;15_11_2020_3_36_21
13;0;2;noStructureCont;query;1;1271;red;red;390;150;49;1;1;zpdbjkc3r3564ye;true;166.727;390;195;psychophysics;235968;practice_trial;NULL;NULL;NULL;NULL;15_11_2020_3_36_21
14;6;2;noStructureCont;bars;7;8038;orange;white,saddlebrown,blue,green,black,orange,yellow;120,210,300,390,480,570,660;150,180,210,240,270,300,330;32;6;6;zpdbjkc3r3564ye;true;166.728;390;195;psychophysics;246016;practice_trials;NULL;NULL;NULL;NULL;15_11_2020_3_36_21
14;6;2;noStructureCont;query;7;3146;orange;white,saddlebrown,blue,green,black,orange,yellow;120,210,300,390,480,570,660;150,180,210,240,270,300,330;54;6;6;zpdbjkc3r3564ye;true;166.728;390;195;psychophysics;250168;practice_trial;NULL;NULL;NULL;NULL;15_11_2020_3_36_21
NULL;NULL;NULL;NULL;end_of_practice;NULL;3051;NULL;NULL;NULL;NULL;32;NULL;NULL;zpdbjkc3r3564ye;NULL;NULL;NULL;NULL;html-keyboard-response;254224;practice_trials;254231;423.718;1;NULL;15_11_2020_3_36_21
1;1;1;noStructureExp;bars;2;2278;red;red,orange;300,39;300,33;32;1;4;cfuuxhuzxj27gte;false;167.088;390;195;psychophysics;405593;practice_trials;NULL;NULL;NULL;NULL;15_11_2020_14_3_1
1;1;1;noStructureExp;query;2;10273;red;red,orange;300,39;300,33;52;1;4;cfuuxhuzxj27gte;false;167.094;390;195;psychophysics;416874;practice_trial;NULL;NULL;NULL;NULL;15_11_2020_14_3_1
2;2;1;noStructureExp;bars;3;1708;white;green,white,pink;390,480,300;210,240,270;32;2;5;cfuuxhuzxj27gte;false;167.099;390;195;psychophysics;420594;practice_trials;NULL;NULL;NULL;NULL;15_11_2020_14_3_1
2;2;1;noStructureExp;query;3;2432;white;green,white,pink;390,480,300;210,240,270;53;2;5;cfuuxhuzxj27gte;false;167.093;390;195;psychophysics;424033;practice_trial;NULL;NULL;NULL;NULL;15_11_2020_14_3_1
3;3;1;noStructureExp;bars;4;2559;orange;orange,pink,yellow,black;480,210,300,390;210,240,270,300;32;1;4;cfuuxhuzxj27gte;false;167.095;390;195;psychophysics;428602;practice_trials;NULL;NULL;NULL;NULL;15_11_2020_14_3_1
3;3;1;noStructureExp;query;4;4464;orange;orange,pink,yellow,black;480,210,300,390;210,240,270,300;52;1;4;cfuuxhuzxj27gte;false;167.094;390;195;psychophysics;434072;practice_trial;NULL;NULL;NULL;NULL;15_11_2020_14_3_1
4;5;1;noStructureExp;bars;6;1113;saddlebrown;pink,orange,saddlebrown,yellow,white,blue;120,300,480,210,570,390;180,210,240,270,300,330;32;3;6;cfuuxhuzxj27gte;false;167.101;390;195;psychophysics;437192;practice_trials;NULL;NULL;NULL;NULL;15_11_2020_14_3_1
4;5;1;noStructureExp;query;6;3300;saddlebrown;pink,orange,saddlebrown,yellow,white,blue;120,300,480,210,570,390;180,210,240,270,300,330;54;3;6;cfuuxhuzxj27gte;false;16.71;390;195;psychophysics;441497;practice_trial;NULL;NULL;NULL;NULL;15_11_2020_14_3_1
5;6;1;noStructureExp;bars;7;1269;black;purple,green,black,yellow,saddlebrown,orange,pink;120,480,210,660,390,570,300;150,180,210,240,270,300,330;32;3;2;cfuuxhuzxj27gte;false;167.101;390;195;psychophysics;444776;practice_trials;NULL;NULL;NULL;NULL;15_11_2020_14_3_1
5;6;1;noStructureExp;query;7;1459;black;purple,green,black,yellow,saddlebrown,orange,pink;120,480,210,660,390,570,300;150,180,210,240,270,300,330;50;3;2;cfuuxhuzxj27gte;false;167.105;390;195;psychophysics;447240;practice_trial;NULL;NULL;NULL;NULL;15_11_2020_14_3_1
6;0;1;noStructureExp;bars;1;1681;red;red;390;330;32;1;4;cfuuxhuzxj27gte;false;167.109;390;195;psychophysics;450937;practice_trials;NULL;NULL;NULL;NULL;15_11_2020_14_3_1
6;0;1;noStructureExp;query;1;3710;red;red;390;330;52;1;4;cfuuxhuzxj27gte;false;167.092;390;195;psychophysics;455655;practice_trial;NULL;NULL;NULL;NULL;15_11_2020_14_3_1
7;4;1;noStructureExp;bars;5;1393;yellow;pink,blue,yellow,purple,red;480,570,390,300,210;180,210,240,270,300;32;3;4;cfuuxhuzxj27gte;false;167.103;390;195;psychophysics;459057;practice_trials;NULL;NULL;NULL;NULL;15_11_2020_14_3_1
7;4;1;noStructureExp;query;5;1302;yellow;pink,blue,yellow,purple,red;480,570,390,300,210;180,210,240,270,300;52;3;4;cfuuxhuzxj27gte;false;167.103;390;195;psychophysics;461367;practice_trial;NULL;NULL;NULL;NULL;15_11_2020_14_3_1
8;5;2;noStructureCont;bars;6;37050;pink;green,white,pink,red,yellow,saddlebrown;120,210,300,390,480,570;180,210,240,270,300,330;32;3;3;cfuuxhuzxj27gte;true;167.094;390;195;psychophysics;509225;practice_trials;NULL;NULL;NULL;NULL;15_11_2020_14_3_1
8;5;2;noStructureCont;query;6;2496;pink;green,white,pink,red,yellow,saddlebrown;120,210,300,390,480,570;180,210,240,270,300,330;51;3;3;cfuuxhuzxj27gte;true;167.092;390;195;psychophysics;512727;practice_trial;NULL;NULL;NULL;NULL;15_11_2020_14_3_1
9;0;2;noStructureCont;bars;1;1827;saddlebrown;saddlebrown;390;330;32;1;6;cfuuxhuzxj27gte;false;167.095;390;195;psychophysics;516567;practice_trials;NULL;NULL;NULL;NULL;15_11_2020_14_3_1
9;0;2;noStructureCont;query;1;1817;saddlebrown;saddlebrown;390;330;54;1;6;cfuuxhuzxj27gte;false;16.708;390;195;psychophysics;519408;practice_trial;NULL;NULL;NULL;NULL;15_11_2020_14_3_1
10;6;2;noStructureCont;bars;7;3772;white;pink,black,white,yellow,purple,orange,green;120,210,300,390,480,570,660;150,180,210,240,270,300,330;32;3;2;cfuuxhuzxj27gte;false;167.094;390;195;psychophysics;525199;practice_trials;NULL;NULL;NULL;NULL;15_11_2020_14_3_1
10;6;2;noStructureCont;query;7;1136;white;pink,black,white,yellow,purple,orange,green;120,210,300,390,480,570,660;150,180,210,240,270,300,330;50;3;2;cfuuxhuzxj27gte;false;167.112;390;195;psychophysics;527342;practice_trial;NULL;NULL;NULL;NULL;15_11_2020_14_3_1
11;2;2;noStructureCont;bars;3;1415;yellow;red,yellow,blue;300,390,480;210,240,270;32;2;6;cfuuxhuzxj27gte;false;16.709;390;195;psychophysics;530766;practice_trials;NULL;NULL;NULL;NULL;15_11_2020_14_3_1
11;2;2;noStructureCont;query;3;3163;yellow;red,yellow,blue;300,390,480;210,240,270;54;2;6;cfuuxhuzxj27gte;false;167.095;390;195;psychophysics;534937;practice_trial;NULL;NULL;NULL;NULL;15_11_2020_14_3_1
12;3;2;noStructureCont;bars;4;886;white;white,green,yellow,purple;210,300,390,480;210,240,270,300;32;1;2;cfuuxhuzxj27gte;false;167.068;390;195;psychophysics;537849;practice_trials;NULL;NULL;NULL;NULL;15_11_2020_14_3_1
12;3;2;noStructureCont;query;4;2839;white;white,green,yellow,purple;210,300,390,480;210,240,270,300;50;1;2;cfuuxhuzxj27gte;false;167.096;390;195;psychophysics;541696;practice_trial;NULL;NULL;NULL;NULL;15_11_2020_14_3_1
13;4;2;noStructureCont;bars;5;11793;white;black,saddlebrown,white,purple,red;210,300,390,480,570;180,210,240,270,300;32;3;3;cfuuxhuzxj27gte;true;167.095;390;195;psychophysics;555495;practice_trials;NULL;NULL;NULL;NULL;15_11_2020_14_3_1
13;4;2;noStructureCont;query;5;2587;white;black,saddlebrown,white,purple,red;210,300,390,480,570;180,210,240,270,300;51;3;3;cfuuxhuzxj27gte;true;167.094;390;195;psychophysics;559088;practice_trial;NULL;NULL;NULL;NULL;15_11_2020_14_3_1
14;1;2;noStructureCont;bars;2;2335;green;green,red;300,39;300,33;32;1;1;cfuuxhuzxj27gte;true;167.098;390;195;psychophysics;563432;practice_trials;NULL;NULL;NULL;NULL;15_11_2020_14_3_1
14;1;2;noStructureCont;query;2;1186;green;green,red;300,39;300,33;49;1;1;cfuuxhuzxj27gte;true;167.086;390;195;psychophysics;565624;practice_trial;NULL;NULL;NULL;NULL;15_11_2020_14_3_1
NULL;NULL;NULL;NULL;end_of_practice;NULL;7137;NULL;NULL;NULL;NULL;32;NULL;NULL;cfuuxhuzxj27gte;NULL;NULL;NULL;NULL;html-keyboard-response;573767;practice_trials;573775;956.292;0.214286;NULL;15_11_2020_14_3_1
1;4;1;noStructureExp;bars;5;11605;white;orange,blue,white,pink,red;570,300,390,210,480;210,240,270,300,330;32;3;3;bhq03qu2q0ckovk;true;167.866;390;195;psychophysics;278267;practice_trials;NULL;NULL;NULL;NULL;15_11_2020_14_9_48
1;4;1;noStructureExp;query;5;6285;white;orange,blue,white,pink,red;570,300,390,210,480;210,240,270,300,330;51;3;3;bhq03qu2q0ckovk;true;167.551;390;195;psychophysics;285558;practice_trial;NULL;NULL;NULL;NULL;15_11_2020_14_9_48
2;1;1;noStructureExp;bars;2;8389;blue;saddlebrown,blue;390,3;150,18;32;2;1;bhq03qu2q0ckovk;false;167.327;390;195;psychophysics;295958;practice_trials;NULL;NULL;NULL;NULL;15_11_2020_14_9_48
2;1;1;noStructureExp;query;2;2786;blue;saddlebrown,blue;390,3;150,18;49;2;1;bhq03qu2q0ckovk;false;16.868;390;195;psychophysics;299748;practice_trial;NULL;NULL;NULL;NULL;15_11_2020_14_9_48
3;2;1;noStructureExp;bars;3;6968;pink;black,pink,purple;300,390,480;150,180,210;32;2;2;bhq03qu2q0ckovk;true;167.868;390;195;psychophysics;308724;practice_trials;NULL;NULL;NULL;NULL;15_11_2020_14_9_48
3;2;1;noStructureExp;query;3;2054;pink;black,pink,purple;300,390,480;150,180,210;50;2;2;bhq03qu2q0ckovk;true;16.666;390;195;psychophysics;311785;practice_trial;NULL;NULL;NULL;NULL;15_11_2020_14_9_48
4;0;1;noStructureExp;bars;1;6558;purple;purple;390;300;32;1;1;bhq03qu2q0ckovk;true;167.512;390;195;psychophysics;320355;practice_trials;NULL;NULL;NULL;NULL;15_11_2020_14_9_48
4;0;1;noStructureExp;query;1;992;purple;purple;390;300;49;1;1;bhq03qu2q0ckovk;true;16.666;390;195;psychophysics;322350;practice_trial;NULL;NULL;NULL;NULL;15_11_2020_14_9_48
5;5;1;noStructureExp;bars;6;9403;purple;pink,blue,green,orange,red,purple;570,210,120,300,390,480;150,180,210,240,270,300;32;6;5;bhq03qu2q0ckovk;false;167.848;390;195;psychophysics;333788;practice_trials;NULL;NULL;NULL;NULL;15_11_2020_14_9_48
5;5;1;noStructureExp;query;6;3141;purple;pink,blue,green,orange,red,purple;570,210,120,300,390,480;150,180,210,240,270,300;53;6;5;bhq03qu2q0ckovk;false;167.551;390;195;psychophysics;337933;practice_trial;NULL;NULL;NULL;NULL;15_11_2020_14_9_48
6;6;1;noStructureExp;bars;7;11094;pink;yellow,orange,red,white,saddlebrown,green,pink;390,570,300,210,660,120,480;150,180,210,240,270,300,330;32;7;5;bhq03qu2q0ckovk;false;167.669;390;195;psychophysics;351036;practice_trials;NULL;NULL;NULL;NULL;15_11_2020_14_9_48
6;6;1;noStructureExp;query;7;3221;pink;yellow,orange,red,white,saddlebrown,green,pink;390,570,300,210,660,120,480;150,180,210,240,270,300,330;53;7;5;bhq03qu2q0ckovk;false;167.528;390;195;psychophysics;355262;practice_trial;NULL;NULL;NULL;NULL;15_11_2020_14_9_48
7;3;1;noStructureExp;bars;4;15636;green;orange,green,white,saddlebrown;390,480,210,300;150,180,210,240;32;2;2;bhq03qu2q0ckovk;true;167.734;390;195;psychophysics;372907;practice_trials;NULL;NULL;NULL;NULL;15_11_2020_14_9_48
7;3;1;noStructureExp;query;4;1771;green;orange,green,white,saddlebrown;390,480,210,300;150,180,210,240;50;2;2;bhq03qu2q0ckovk;true;168.263;390;195;psychophysics;375684;practice_trial;NULL;NULL;NULL;NULL;15_11_2020_14_9_48
8;0;2;noStructureCont;bars;1;5319;white;white;390;300;32;1;1;bhq03qu2q0ckovk;true;168.247;390;195;psychophysics;394966;practice_trials;NULL;NULL;NULL;NULL;15_11_2020_14_9_48
8;0;2;noStructureCont;query;1;951;white;white;390;300;49;1;1;bhq03qu2q0ckovk;true;16.666;390;195;psychophysics;396921;practice_trial;NULL;NULL;NULL;NULL;15_11_2020_14_9_48
9;3;2;noStructureCont;bars;4;7497;pink;yellow,pink,green,orange;210,300,390,480;150,180,210,240;32;2;2;bhq03qu2q0ckovk;true;167.406;390;195;psychophysics;406429;practice_trials;NULL;NULL;NULL;NULL;15_11_2020_14_9_48
9;3;2;noStructureCont;query;4;2153;pink;yellow,pink,green,orange;210,300,390,480;150,180,210,240;50;2;2;bhq03qu2q0ckovk;true;169.305;390;195;psychophysics;409588;practice_trial;NULL;NULL;NULL;NULL;15_11_2020_14_9_48
10;4;2;noStructureCont;bars;5;10840;yellow;pink,saddlebrown,yellow,red,black;210,300,390,480,570;210,240,270,300,330;32;3;3;bhq03qu2q0ckovk;true;167.694;390;195;psychophysics;422438;practice_trials;NULL;NULL;NULL;NULL;15_11_2020_14_9_48
10;4;2;noStructureCont;query;5;1723;yellow;pink,saddlebrown,yellow,red,black;210,300,390,480,570;210,240,270,300,330;51;3;3;bhq03qu2q0ckovk;true;16.666;390;195;psychophysics;425169;practice_trial;NULL;NULL;NULL;NULL;15_11_2020_14_9_48
11;1;2;noStructureCont;bars;2;5430;pink;purple,pink;300,39;150,18;32;2;2;bhq03qu2q0ckovk;true;168.213;390;195;psychophysics;432608;practice_trials;NULL;NULL;NULL;NULL;15_11_2020_14_9_48
11;1;2;noStructureCont;query;2;2694;pink;purple,pink;300,39;150,18;50;2;2;bhq03qu2q0ckovk;true;169.824;390;195;psychophysics;436311;practice_trial;NULL;NULL;NULL;NULL;15_11_2020_14_9_48
12;2;2;noStructureCont;bars;3;7446;blue;orange,blue,yellow;300,390,480;150,180,210;32;2;2;bhq03qu2q0ckovk;true;168.168;390;195;psychophysics;445765;practice_trials;NULL;NULL;NULL;NULL;15_11_2020_14_9_48
12;2;2;noStructureCont;query;3;1600;blue;orange,blue,yellow;300,390,480;150,180,210;50;2;2;bhq03qu2q0ckovk;true;172.095;390;195;psychophysics;448370;practice_trial;NULL;NULL;NULL;NULL;15_11_2020_14_9_48
13;5;2;noStructureCont;bars;6;11731;saddlebrown;pink,black,red,yellow,orange,saddlebrown;120,210,300,390,480,570;150,180,210,240,270,300;32;6;6;bhq03qu2q0ckovk;true;167.614;390;195;psychophysics;462115;practice_trials;NULL;NULL;NULL;NULL;15_11_2020_14_9_48
13;5;2;noStructureCont;query;6;3276;saddlebrown;pink,black,red,yellow,orange,saddlebrown;120,210,300,390,480,570;150,180,210,240,270,300;54;6;6;bhq03qu2q0ckovk;true;16.666;390;195;psychophysics;466397;practice_trial;NULL;NULL;NULL;NULL;15_11_2020_14_9_48
14;6;2;noStructureCont;bars;7;12735;pink;purple,white,saddlebrown,black,green,blue,pink;120,210,300,390,480,570,660;150,180,210,240,270,300,330;32;7;7;bhq03qu2q0ckovk;true;167.317;390;195;psychophysics;481142;practice_trials;NULL;NULL;NULL;NULL;15_11_2020_14_9_48
14;6;2;noStructureCont;query;7;3574;pink;purple,white,saddlebrown,black,green,blue,pink;120,210,300,390,480,570,660;150,180,210,240,270,300,330;55;7;7;bhq03qu2q0ckovk;true;167.446;390;195;psychophysics;485721;practice_trial;NULL;NULL;NULL;NULL;15_11_2020_14_9_48
NULL;NULL;NULL;NULL;end_of_practice;NULL;16194;NULL;NULL;NULL;NULL;32;NULL;NULL;bhq03qu2q0ckovk;NULL;NULL;NULL;NULL;html-keyboard-response;502921;practice_trials;502933;838.222;0.785714;NULL;15_11_2020_14_9_48
1;25;1;sortStructureExp;bars;6;3266;orange;black,orange,green,blue,saddlebrown,pink;390,570,480,210,120,300;180,210,240,270,300,330;32;2;2;12wz8v33a9awf4m;true;123.845;390;195;psychophysics;7289;experimental_data;NULL;NULL;NULL;NULL;15_11_2020_3_30_44
1;25;1;sortStructureExp;query;6;2866;orange;black,orange,green,blue,saddlebrown,pink;390,570,480,210,120,300;180,210,240,270,300,330;50;2;2;12wz8v33a9awf4m;true;709.955;390;195;psychophysics;11160;experimental_data;NULL;NULL;NULL;NULL;15_11_2020_3_30_44
2;19;1;sortStructureExp;bars;4;2196;orange;orange,green,blue,saddlebrown;210,300,390,480;240,270,300,330;32;1;1;12wz8v33a9awf4m;true;164.996;390;195;psychophysics;15364;experimental_data;NULL;NULL;NULL;NULL;15_11_2020_3_30_44
2;19;1;sortStructureExp;query;4;881;orange;orange,green,blue,saddlebrown;210,300,390,480;240,270,300,330;49;1;1;12wz8v33a9awf4m;true;711.374;390;195;psychophysics;17250;experimental_data;NULL;NULL;NULL;NULL;15_11_2020_3_30_44
3;1;1;sortStructureExp;bars;1;1177;orange;orange;390;210;32;1;1;12wz8v33a9awf4m;true;131.089;390;195;psychophysics;20434;experimental_data;NULL;NULL;NULL;NULL;15_11_2020_3_30_44
3;1;1;sortStructureExp;query;1;709;orange;orange;390;210;49;1;1;12wz8v33a9awf4m;true;708.473;390;195;psychophysics;22149;experimental_data;NULL;NULL;NULL;NULL;15_11_2020_3_30_44
4;3;1;sortStructureExp;bars;1;711;orange;orange;390;300;32;1;1;12wz8v33a9awf4m;true;694.446;390;195;psychophysics;24868;experimental_data;NULL;NULL;NULL;NULL;15_11_2020_3_30_44
4;3;1;sortStructureExp;query;1;418;orange;orange;390;300;49;1;1;12wz8v33a9awf4m;true;69.445;390;195;psychophysics;26291;experimental_data;NULL;NULL;NULL;NULL;15_11_2020_3_30_44
5;32;1;sortStructureExp;bars;7;5475;pink;purple,white,black,orange,green,blue,pink;210,300,480,120,390,660,570;150,180,210,240,270,300,330;32;7;5;12wz8v33a9awf4m;false;101.257;390;195;psychophysics;33773;experimental_data;NULL;NULL;NULL;NULL;15_11_2020_3_30_44
5;32;1;sortStructureExp;query;7;2339;pink;purple,white,black,orange,green,blue,pink;210,300,480,120,390,660,570;150,180,210,240,270,300,330;53;7;5;12wz8v33a9awf4m;false;70.703;390;195;psychophysics;37120;experimental_data;NULL;NULL;NULL;NULL;15_11_2020_3_30_44
6;15;1;sortStructureExp;bars;4;7177;yellow;orange,green,blue,yellow;210,390,480,300;150,180,210,240;32;4;4;12wz8v33a9awf4m;true;909.212;390;195;psychophysics;46305;experimental_data;NULL;NULL;NULL;NULL;15_11_2020_3_30_44
6;15;1;sortStructureExp;query;4;1786;yellow;orange,green,blue,yellow;210,390,480,300;150,180,210,240;52;4;4;12wz8v33a9awf4m;true;705.423;390;195;psychophysics;49096;experimental_data;NULL;NULL;NULL;NULL;15_11_2020_3_30_44
7;20;1;sortStructureExp;bars;5;2560;pink;pink,yellow,orange,green,blue;210,570,300,390,480;150,180,210,240,270;32;1;1;12wz8v33a9awf4m;true;160.725;390;195;psychophysics;53665;experimental_data;NULL;NULL;NULL;NULL;15_11_2020_3_30_44
7;20;1;sortStructureExp;query;5;817;pink;pink,yellow,orange,green,blue;210,570,300,390,480;150,180,210,240,270;49;1;1;12wz8v33a9awf4m;true;712.736;390;195;psychophysics;55487;experimental_data;NULL;NULL;NULL;NULL;15_11_2020_3_30_44
8;14;1;sortStructureExp;bars;3;1467;orange;orange,green,blue;300,390,480;240,270,300;32;1;1;12wz8v33a9awf4m;true;133.798;390;195;psychophysics;58960;experimental_data;NULL;NULL;NULL;NULL;15_11_2020_3_30_44
8;14;1;sortStructureExp;query;3;877;orange;orange,green,blue;300,390,480;240,270,300;49;1;1;12wz8v33a9awf4m;true;723.216;390;195;psychophysics;60844;experimental_data;NULL;NULL;NULL;NULL;15_11_2020_3_30_44
9;13;1;sortStructureExp;bars;3;610;blue;orange,green,blue;300,390,480;240,270,300;32;3;3;12wz8v33a9awf4m;true;702.426;390;195;psychophysics;63462;experimental_data;NULL;NULL;NULL;NULL;15_11_2020_3_30_44
9;13;1;sortStructureExp;query;3;664;blue;orange,green,blue;300,390,480;240,270,300;51;3;3;12wz8v33a9awf4m;true;732.999;390;195;psychophysics;65131;experimental_data;NULL;NULL;NULL;NULL;15_11_2020_3_30_44
10;26;1;sortStructureExp;bars;6;960;orange;red,orange,green,blue,white,purple;480,120,570,210,300,390;150,180,210,240,270,300;32;2;3;12wz8v33a9awf4m;false;694.426;390;195;psychophysics;68097;experimental_data;NULL;NULL;NULL;NULL;15_11_2020_3_30_44
10;26;1;sortStructureExp;query;6;1845;orange;red,orange,green,blue,white,purple;480,120,570,210,300,390;150,180,210,240,270,300;51;2;3;12wz8v33a9awf4m;false;716.062;390;195;psychophysics;70947;experimental_data;NULL;NULL;NULL;NULL;15_11_2020_3_30_44
11;9;1;sortStructureExp;bars;2;431;green;orange,green;300,39;300,33;32;2;2;12wz8v33a9awf4m;true;694.395;390;195;psychophysics;73384;experimental_data;NULL;NULL;NULL;NULL;15_11_2020_3_30_44
11;9;1;sortStructureExp;query;2;1089;green;orange,green;300,39;300,33;50;2;2;12wz8v33a9awf4m;true;717.302;390;195;psychophysics;75477;experimental_data;NULL;NULL;NULL;NULL;15_11_2020_3_30_44
12;2;1;sortStructureExp;bars;1;529;orange;orange;390;210;32;1;1;12wz8v33a9awf4m;true;703.745;390;195;psychophysics;78013;experimental_data;NULL;NULL;NULL;NULL;15_11_2020_3_30_44
12;2;1;sortStructureExp;query;1;269;orange;orange;390;210;49;1;1;12wz8v33a9awf4m;true;712.679;390;195;psychophysics;79289;experimental_data;NULL;NULL;NULL;NULL;15_11_2020_3_30_44
13;17;1;sortStructureExp;bars;4;1756;black;orange,green,blue,black;210,300,480,390;210,240,270,300;32;4;4;12wz8v33a9awf4m;true;708.455;390;195;psychophysics;83053;experimental_data;NULL;NULL;NULL;NULL;15_11_2020_3_30_44
13;17;1;sortStructureExp;query;4;703;black;orange,green,blue,black;210,300,480,390;210,240,270,300;52;4;4;12wz8v33a9awf4m;true;694.434;390;195;psychophysics;84761;experimental_data;NULL;NULL;NULL;NULL;15_11_2020_3_30_44
14;31;1;sortStructureExp;bars;7;6391;green;yellow,black,saddlebrown,red,orange,green,blue;570,660,120,390,300,480,210;150,180,210,240,270,300,330;32;6;6;12wz8v33a9awf4m;true;931.322;390;195;psychophysics;93159;experimental_data;NULL;NULL;NULL;NULL;15_11_2020_3_30_44
14;31;1;sortStructureExp;query;7;9219;green;yellow,black,saddlebrown,red,orange,green,blue;570,660,120,390,300,480,210;150,180,210,240,270,300,330;54;6;6;12wz8v33a9awf4m;true;706.151;390;195;psychophysics;103383;experimental_data;NULL;NULL;NULL;NULL;15_11_2020_3_30_44
15;22;1;sortStructureExp;bars;5;4736;blue;orange,green,blue,yellow,black;570,390,300,210,480;210,240,270,300,330;32;3;5;12wz8v33a9awf4m;false;959.281;390;195;psychophysics;110125;experimental_data;NULL;NULL;NULL;NULL;15_11_2020_3_30_44
15;22;1;sortStructureExp;query;5;1767;blue;orange,green,blue,yellow,black;570,390,300,210,480;210,240,270,300,330;53;3;5;12wz8v33a9awf4m;false;705.572;390;195;psychophysics;112897;experimental_data;NULL;NULL;NULL;NULL;15_11_2020_3_30_44
16;16;1;sortStructureExp;bars;4;2105;yellow;orange,green,blue,yellow;300,390,480,210;240,270,300,330;32;4;4;12wz8v33a9awf4m;true;706.141;390;195;psychophysics;117011;experimental_data;NULL;NULL;NULL;NULL;15_11_2020_3_30_44
16;16;1;sortStructureExp;query;4;690;yellow;orange,green,blue,yellow;300,390,480,210;240,270,300,330;52;4;4;12wz8v33a9awf4m;true;739.249;390;195;psychophysics;118706;experimental_data;NULL;NULL;NULL;NULL;15_11_2020_3_30_44
17;5;1;sortStructureExp;bars;2;663;orange;orange,green;300,39;240,27;32;1;1;12wz8v33a9awf4m;true;709.435;390;195;psychophysics;121378;experimental_data;NULL;NULL;NULL;NULL;15_11_2020_3_30_44
17;5;1;sortStructureExp;query;2;586;orange;orange,green;300,39;240,27;49;1;1;12wz8v33a9awf4m;true;711.438;390;195;psychophysics;122970;experimental_data;NULL;NULL;NULL;NULL;15_11_2020_3_30_44
18;23;1;sortStructureExp;bars;5;1475;purple;purple,orange,green,blue,white;480,570,390,210,300;180,210,240,270,300;32;1;1;12wz8v33a9awf4m;true;704.378;390;195;psychophysics;126453;experimental_data;NULL;NULL;NULL;NULL;15_11_2020_3_30_44
18;23;1;sortStructureExp;query;5;1210;purple;purple,orange,green,blue,white;480,570,390,210,300;180,210,240,270,300;49;1;1;12wz8v33a9awf4m;true;702.557;390;195;psychophysics;128668;experimental_data;NULL;NULL;NULL;NULL;15_11_2020_3_30_44
19;21;1;sortStructureExp;bars;5;1745;blue;orange,green,blue,red,saddlebrown;480,210,300,390,570;150,180,210,240,270;32;3;3;12wz8v33a9awf4m;true;702.881;390;195;psychophysics;132421;experimental_data;NULL;NULL;NULL;NULL;15_11_2020_3_30_44
19;21;1;sortStructureExp;query;5;2585;blue;orange,green,blue,red,saddlebrown;480,210,300,390,570;150,180,210,240,270;51;3;3;12wz8v33a9awf4m;true;709.747;390;195;psychophysics;136010;experimental_data;NULL;NULL;NULL;NULL;15_11_2020_3_30_44
20;18;1;sortStructureExp;bars;4;1699;blue;yellow,orange,green,blue;480,300,390,210;150,180,210,240;32;4;4;12wz8v33a9awf4m;true;706.021;390;195;psychophysics;139716;experimental_data;NULL;NULL;NULL;NULL;15_11_2020_3_30_44
20;18;1;sortStructureExp;query;4;548;blue;yellow,orange,green,blue;480,300,390,210;150,180,210,240;52;4;4;12wz8v33a9awf4m;true;72.185;390;195;psychophysics;141269;experimental_data;NULL;NULL;NULL;NULL;15_11_2020_3_30_44
21;34;1;sortStructureExp;bars;7;3704;orange;red,black,white,orange,green,blue,saddlebrown;660,120,570,390,300,480,210;150,180,210,240,270,300,330;32;4;4;12wz8v33a9awf4m;true;71.319;390;195;psychophysics;146980;experimental_data;NULL;NULL;NULL;NULL;15_11_2020_3_30_44
21;34;1;sortStructureExp;query;7;750;orange;red,black,white,orange,green,blue,saddlebrown;660,120,570,390,300,480,210;150,180,210,240,270,300,330;52;4;4;12wz8v33a9awf4m;true;70.757;390;195;psychophysics;148735;experimental_data;NULL;NULL;NULL;NULL;15_11_2020_3_30_44
22;24;1;sortStructureExp;bars;5;1206;red;black,red,orange,green,blue;390,300,210,480,570;180,210,240,270,300;32;2;2;12wz8v33a9awf4m;true;706.691;390;195;psychophysics;151948;experimental_data;NULL;NULL;NULL;NULL;15_11_2020_3_30_44
22;24;1;sortStructureExp;query;5;1235;red;black,red,orange,green,blue;390,300,210,480,570;180,210,240,270,300;50;2;2;12wz8v33a9awf4m;true;714.641;390;195;psychophysics;154188;experimental_data;NULL;NULL;NULL;NULL;15_11_2020_3_30_44
23;6;1;sortStructureExp;bars;2;853;orange;orange,green;390,3;270,3;32;1;1;12wz8v33a9awf4m;true;700.235;390;195;psychophysics;157047;experimental_data;NULL;NULL;NULL;NULL;15_11_2020_3_30_44
23;6;1;sortStructureExp;query;2;455;orange;orange,green;390,3;270,3;49;1;1;12wz8v33a9awf4m;true;694.502;390;195;psychophysics;158506;experimental_data;NULL;NULL;NULL;NULL;15_11_2020_3_30_44
24;28;1;sortStructureExp;bars;6;1803;red;purple,red,orange,green,blue,black;390,480,210,300,570,120;150,180,210,240,270,300;32;2;2;12wz8v33a9awf4m;true;699.853;390;195;psychophysics;162317;experimental_data;NULL;NULL;NULL;NULL;15_11_2020_3_30_44
24;28;1;sortStructureExp;query;6;1521;red;purple,red,orange,green,blue,black;390,480,210,300,570,120;150,180,210,240,270,300;50;2;2;12wz8v33a9awf4m;true;717.495;390;195;psychophysics;164843;experimental_data;NULL;NULL;NULL;NULL;15_11_2020_3_30_44
25;27;1;sortStructureExp;bars;6;1527;orange;black,red,orange,green,blue,purple;570,390,300,120,210,480;150,180,210,240,270,300;32;3;3;12wz8v33a9awf4m;true;72.422;390;195;psychophysics;168377;experimental_data;NULL;NULL;NULL;NULL;15_11_2020_3_30_44
25;27;1;sortStructureExp;query;6;1444;orange;black,red,orange,green,blue,purple;570,390,300,120,210,480;150,180,210,240,270,300;51;3;3;12wz8v33a9awf4m;true;722.238;390;195;psychophysics;170825;experimental_data;NULL;NULL;NULL;NULL;15_11_2020_3_30_44
26;7;1;sortStructureExp;bars;2;2283;orange;orange,green;300,39;150,18;32;1;1;12wz8v33a9awf4m;true;725.308;390;195;psychophysics;175118;experimental_data;NULL;NULL;NULL;NULL;15_11_2020_3_30_44
26;7;1;sortStructureExp;query;2;497;orange;orange,green;300,39;150,18;49;1;1;12wz8v33a9awf4m;true;714.594;390;195;psychophysics;176620;experimental_data;NULL;NULL;NULL;NULL;15_11_2020_3_30_44
27;29;1;sortStructureExp;bars;6;1687;orange;red,purple,orange,green,blue,yellow;300,390,570,120,480,210;150,180,210,240,270,300;32;3;3;12wz8v33a9awf4m;true;709.098;390;195;psychophysics;180314;experimental_data;NULL;NULL;NULL;NULL;15_11_2020_3_30_44
27;29;1;sortStructureExp;query;6;989;orange;red,purple,orange,green,blue,yellow;300,390,570,120,480,210;150,180,210,240,270,300;51;3;3;12wz8v33a9awf4m;true;719.791;390;195;psychophysics;182306;experimental_data;NULL;NULL;NULL;NULL;15_11_2020_3_30_44
28;30;1;sortStructureExp;bars;7;3439;pink;yellow,saddlebrown,orange,green,blue,red,pink;210,120,300,570,660,480,390;150,180,210,240,270,300,330;32;7;5;12wz8v33a9awf4m;false;708.784;390;195;psychophysics;187751;experimental_data;NULL;NULL;NULL;NULL;15_11_2020_3_30_44
28;30;1;sortStructureExp;query;7;1391;pink;yellow,saddlebrown,orange,green,blue,red,pink;210,120,300,570,660,480,390;150,180,210,240,270,300,330;53;7;5;12wz8v33a9awf4m;false;712.333;390;195;psychophysics;190146;experimental_data;NULL;NULL;NULL;NULL;15_11_2020_3_30_44
29;0;1;sortStructureExp;bars;1;568;orange;orange;390;210;32;1;1;12wz8v33a9awf4m;true;703.094;390;195;psychophysics;192720;experimental_data;NULL;NULL;NULL;NULL;15_11_2020_3_30_44
29;0;1;sortStructureExp;query;1;360;orange;orange;390;210;49;1;1;12wz8v33a9awf4m;true;722.749;390;195;psychophysics;194084;experimental_data;NULL;NULL;NULL;NULL;15_11_2020_3_30_44
30;11;1;sortStructureExp;bars;3;1342;green;orange,green,blue;300,480,390;180,210,240;32;2;2;12wz8v33a9awf4m;true;701.674;390;195;psychophysics;197434;experimental_data;NULL;NULL;NULL;NULL;15_11_2020_3_30_44
30;11;1;sortStructureExp;query;3;1012;green;orange,green,blue;300,480,390;180,210,240;50;2;2;12wz8v33a9awf4m;true;71.401;390;195;psychophysics;199452;experimental_data;NULL;NULL;NULL;NULL;15_11_2020_3_30_44
31;8;1;sortStructureExp;bars;2;704;green;orange,green;300,39;240,27;32;2;2;12wz8v33a9awf4m;true;723.079;390;195;psychophysics;202162;experimental_data;NULL;NULL;NULL;NULL;15_11_2020_3_30_44
31;8;1;sortStructureExp;query;2;520;green;orange,green;300,39;240,27;50;2;2;12wz8v33a9awf4m;true;713.418;390;195;psychophysics;203687;experimental_data;NULL;NULL;NULL;NULL;15_11_2020_3_30_44
32;33;1;sortStructureExp;bars;7;2262;blue;red,orange,green,blue,white,purple,pink;660,300,390,570,210,480,120;150,180,210,240,270,300,330;32;4;4;12wz8v33a9awf4m;true;705.321;390;195;psychophysics;207956;experimental_data;NULL;NULL;NULL;NULL;15_11_2020_3_30_44
32;33;1;sortStructureExp;query;7;902;blue;red,orange,green,blue,white,purple,pink;660,300,390,570,210,480,120;150,180,210,240,270,300,330;52;4;4;12wz8v33a9awf4m;true;710.979;390;195;psychophysics;209863;experimental_data;NULL;NULL;NULL;NULL;15_11_2020_3_30_44
33;4;1;sortStructureExp;bars;1;501;orange;orange;390;270;32;1;1;12wz8v33a9awf4m;true;694.437;390;195;psychophysics;212369;experimental_data;NULL;NULL;NULL;NULL;15_11_2020_3_30_44
33;4;1;sortStructureExp;query;1;424;orange;orange;390;270;49;1;1;12wz8v33a9awf4m;true;694.546;390;195;psychophysics;213797;experimental_data;NULL;NULL;NULL;NULL;15_11_2020_3_30_44
34;12;1;sortStructureExp;bars;3;565;blue;orange,green,blue;300,480,390;180,210,240;32;3;2;12wz8v33a9awf4m;false;712.466;390;195;psychophysics;216370;experimental_data;NULL;NULL;NULL;NULL;15_11_2020_3_30_44
34;12;1;sortStructureExp;query;3;687;blue;orange,green,blue;300,480,390;180,210,240;50;3;2;12wz8v33a9awf4m;false;708.795;390;195;psychophysics;218062;experimental_data;NULL;NULL;NULL;NULL;15_11_2020_3_30_44
35;10;1;sortStructureExp;bars;3;812;green;orange,green,blue;300,480,390;180,210,240;32;2;2;12wz8v33a9awf4m;true;700.448;390;195;psychophysics;220881;experimental_data;NULL;NULL;NULL;NULL;15_11_2020_3_30_44
35;10;1;sortStructureExp;query;3;1116;green;orange,green,blue;300,480,390;180,210,240;50;2;2;12wz8v33a9awf4m;true;707.709;390;195;psychophysics;223000;experimental_data;NULL;NULL;NULL;NULL;15_11_2020_3_30_44
NULL;NULL;0;NULL;end_of_block;NULL;1610;NULL;NULL;NULL;NULL;32;NULL;NULL;12wz8v33a9awf4m;NULL;NULL;NULL;NULL;html-keyboard-response;225615;experimental_data;225634;376.057;0.857143;NULL;15_11_2020_3_30_44
36;16;2;noStructureCont;bars;4;1534;yellow;pink,yellow,purple,black;210,300,390,480;240,270,300,330;32;2;2;12wz8v33a9awf4m;true;704.056;390;195;psychophysics;228154;experimental_data;NULL;NULL;NULL;NULL;15_11_2020_3_30_44
36;16;2;noStructureCont;query;4;1349;yellow;pink,yellow,purple,black;210,300,390,480;240,270,300,330;50;2;2;12wz8v33a9awf4m;true;705.354;390;195;psychophysics;230507;experimental_data;NULL;NULL;NULL;NULL;15_11_2020_3_30_44
37;21;2;noStructureCont;bars;5;2541;red;white,black,blue,green,red;210,300,390,480,570;150,180,210,240,270;32;5;5;12wz8v33a9awf4m;true;71.003;390;195;psychophysics;235056;experimental_data;NULL;NULL;NULL;NULL;15_11_2020_3_30_44
37;21;2;noStructureCont;query;5;1203;red;white,black,blue,green,red;210,300,390,480,570;150,180,210,240,270;53;5;5;12wz8v33a9awf4m;true;719.401;390;195;psychophysics;237264;experimental_data;NULL;NULL;NULL;NULL;15_11_2020_3_30_44
38;15;2;noStructureCont;bars;4;1472;saddlebrown;orange,purple,black,saddlebrown;210,300,390,480;150,180,210,240;32;4;4;12wz8v33a9awf4m;true;721.836;390;195;psychophysics;240744;experimental_data;NULL;NULL;NULL;NULL;15_11_2020_3_30_44
38;15;2;noStructureCont;query;4;1277;saddlebrown;orange,purple,black,saddlebrown;210,300,390,480;150,180,210,240;52;4;4;12wz8v33a9awf4m;true;709.856;390;195;psychophysics;243026;experimental_data;NULL;NULL;NULL;NULL;15_11_2020_3_30_44
39;31;2;noStructureCont;bars;7;6342;orange;white,purple,orange,black,blue,green,yellow;120,210,300,390,480,570,660;150,180,210,240,270,300,330;32;3;3;12wz8v33a9awf4m;true;965.046;390;195;psychophysics;251376;experimental_data;NULL;NULL;NULL;NULL;15_11_2020_3_30_44
39;31;2;noStructureCont;query;7;996;orange;white,purple,orange,black,blue,green,yellow;120,210,300,390,480,570,660;150,180,210,240,270,300,330;51;3;3;12wz8v33a9awf4m;true;7.043;390;195;psychophysics;253377;experimental_data;NULL;NULL;NULL;NULL;15_11_2020_3_30_44
40;22;2;noStructureCont;bars;5;1914;green;saddlebrown,green,yellow,white,purple;210,300,390,480,570;210,240,270,300,330;32;2;2;12wz8v33a9awf4m;true;70.732;390;195;psychophysics;257296;experimental_data;NULL;NULL;NULL;NULL;15_11_2020_3_30_44
40;22;2;noStructureCont;query;5;999;green;saddlebrown,green,yellow,white,purple;210,300,390,480,570;210,240,270,300,330;50;2;2;12wz8v33a9awf4m;true;719.632;390;195;psychophysics;259300;experimental_data;NULL;NULL;NULL;NULL;15_11_2020_3_30_44
41;0;2;noStructureCont;bars;1;675;red;red;390;210;32;1;1;12wz8v33a9awf4m;true;716.876;390;195;psychophysics;261982;experimental_data;NULL;NULL;NULL;NULL;15_11_2020_3_30_44
41;0;2;noStructureCont;query;1;324;red;red;390;210;49;1;1;12wz8v33a9awf4m;true;694.421;390;195;psychophysics;263311;experimental_data;NULL;NULL;NULL;NULL;15_11_2020_3_30_44
42;2;2;noStructureCont;bars;1;679;white;white;390;210;32;1;1;12wz8v33a9awf4m;true;709.441;390;195;psychophysics;265996;experimental_data;NULL;NULL;NULL;NULL;15_11_2020_3_30_44
42;2;2;noStructureCont;query;1;390;white;white;390;210;49;1;1;12wz8v33a9awf4m;true;706.936;390;195;psychophysics;267391;experimental_data;NULL;NULL;NULL;NULL;15_11_2020_3_30_44
43;9;2;noStructureCont;bars;2;1018;black;black,blue;300,39;300,33;32;1;1;12wz8v33a9awf4m;true;69.929;390;195;psychophysics;270416;experimental_data;NULL;NULL;NULL;NULL;15_11_2020_3_30_44
43;9;2;noStructureCont;query;2;706;black;black,blue;300,39;300,33;49;1;1;12wz8v33a9awf4m;true;708.508;390;195;psychophysics;272126;experimental_data;NULL;NULL;NULL;NULL;15_11_2020_3_30_44
44;7;2;noStructureCont;bars;2;562;orange;blue,orange;300,39;150,18;32;2;2;12wz8v33a9awf4m;true;694.409;390;195;psychophysics;274695;experimental_data;NULL;NULL;NULL;NULL;15_11_2020_3_30_44
44;7;2;noStructureCont;query;2;689;orange;blue,orange;300,39;150,18;50;2;2;12wz8v33a9awf4m;true;73.972;390;195;psychophysics;276388;experimental_data;NULL;NULL;NULL;NULL;15_11_2020_3_30_44
45;20;2;noStructureCont;bars;5;1633;red;yellow,pink,white,orange,red;210,300,390,480,570;150,180,210,240,270;32;5;5;12wz8v33a9awf4m;true;706.461;390;195;psychophysics;280029;experimental_data;NULL;NULL;NULL;NULL;15_11_2020_3_30_44
45;20;2;noStructureCont;query;5;1708;red;yellow,pink,white,orange,red;210,300,390,480,570;150,180,210,240,270;53;5;5;12wz8v33a9awf4m;true;708.836;390;195;psychophysics;282742;experimental_data;NULL;NULL;NULL;NULL;15_11_2020_3_30_44
46;12;2;noStructureCont;bars;3;1042;purple;purple,orange,white;300,390,480;180,210,240;32;1;1;12wz8v33a9awf4m;true;703.824;390;195;psychophysics;285790;experimental_data;NULL;NULL;NULL;NULL;15_11_2020_3_30_44
46;12;2;noStructureCont;query;3;1268;purple;purple,orange,white;300,390,480;180,210,240;49;1;1;12wz8v33a9awf4m;true;710.038;390;195;psychophysics;288063;experimental_data;NULL;NULL;NULL;NULL;15_11_2020_3_30_44
47;18;2;noStructureCont;bars;4;2071;green;green,red,pink,blue;210,300,390,480;150,180,210,240;32;1;1;12wz8v33a9awf4m;true;703.887;390;195;psychophysics;292139;experimental_data;NULL;NULL;NULL;NULL;15_11_2020_3_30_44
47;18;2;noStructureCont;query;4;975;green;green,red,pink,blue;210,300,390,480;150,180,210,240;49;1;1;12wz8v33a9awf4m;true;709.651;390;195;psychophysics;294117;experimental_data;NULL;NULL;NULL;NULL;15_11_2020_3_30_44
48;24;2;noStructureCont;bars;5;1654;saddlebrown;white,black,saddlebrown,orange,green;210,300,390,480,570;180,210,240,270,300;32;3;3;12wz8v33a9awf4m;true;706.309;390;195;psychophysics;297778;experimental_data;NULL;NULL;NULL;NULL;15_11_2020_3_30_44
48;24;2;noStructureCont;query;5;1826;saddlebrown;white,black,saddlebrown,orange,green;210,300,390,480,570;180,210,240,270,300;51;3;3;12wz8v33a9awf4m;true;716.322;390;195;psychophysics;300608;experimental_data;NULL;NULL;NULL;NULL;15_11_2020_3_30_44
49;4;2;noStructureCont;bars;1;478;purple;purple;390;270;32;1;1;12wz8v33a9awf4m;true;715.445;390;195;psychophysics;303092;experimental_data;NULL;NULL;NULL;NULL;15_11_2020_3_30_44
49;4;2;noStructureCont;query;1;227;purple;purple;390;270;49;1;1;12wz8v33a9awf4m;true;694.456;390;195;psychophysics;304322;experimental_data;NULL;NULL;NULL;NULL;15_11_2020_3_30_44
50;8;2;noStructureCont;bars;2;655;yellow;purple,yellow;300,39;240,27;32;2;2;12wz8v33a9awf4m;true;709.531;390;195;psychophysics;306984;experimental_data;NULL;NULL;NULL;NULL;15_11_2020_3_30_44
50;8;2;noStructureCont;query;2;395;yellow;purple,yellow;300,39;240,27;50;2;2;12wz8v33a9awf4m;true;694.446;390;195;psychophysics;308384;experimental_data;NULL;NULL;NULL;NULL;15_11_2020_3_30_44
51;32;2;noStructureCont;bars;7;5316;purple;yellow,pink,white,blue,green,orange,purple;120,210,300,390,480,570,660;150,180,210,240,270,300,330;32;7;7;12wz8v33a9awf4m;true;994.295;390;195;psychophysics;315707;experimental_data;NULL;NULL;NULL;NULL;15_11_2020_3_30_44
51;32;2;noStructureCont;query;7;3245;purple;yellow,pink,white,blue,green,orange,purple;120,210,300,390,480,570,660;150,180,210,240,270,300,330;55;7;7;12wz8v33a9awf4m;true;70.812;390;195;psychophysics;319958;experimental_data;NULL;NULL;NULL;NULL;15_11_2020_3_30_44
52;29;2;noStructureCont;bars;6;4806;purple;black,yellow,saddlebrown,white,green,purple;120,210,300,390,480,570;150,180,210,240,270,300;32;6;6;12wz8v33a9awf4m;true;974.776;390;195;psychophysics;326771;experimental_data;NULL;NULL;NULL;NULL;15_11_2020_3_30_44
52;29;2;noStructureCont;query;6;2490;purple;black,yellow,saddlebrown,white,green,purple;120,210,300,390,480,570;150,180,210,240,270,300;54;6;6;12wz8v33a9awf4m;true;702.282;390;195;psychophysics;330268;experimental_data;NULL;NULL;NULL;NULL;15_11_2020_3_30_44
53;11;2;noStructureCont;bars;3;873;black;black,green,saddlebrown;300,390,480;180,210,240;32;1;1;12wz8v33a9awf4m;true;705.766;390;195;psychophysics;333149;experimental_data;NULL;NULL;NULL;NULL;15_11_2020_3_30_44
53;11;2;noStructureCont;query;3;673;black;black,green,saddlebrown;300,390,480;180,210,240;49;1;1;12wz8v33a9awf4m;true;724.386;390;195;psychophysics;334825;experimental_data;NULL;NULL;NULL;NULL;15_11_2020_3_30_44
54;3;2;noStructureCont;bars;1;474;black;black;390;300;32;1;1;12wz8v33a9awf4m;true;694.437;390;195;psychophysics;337307;experimental_data;NULL;NULL;NULL;NULL;15_11_2020_3_30_44
54;3;2;noStructureCont;query;1;250;black;black;390;300;49;1;1;12wz8v33a9awf4m;true;735.432;390;195;psychophysics;338561;experimental_data;NULL;NULL;NULL;NULL;15_11_2020_3_30_44
55;23;2;noStructureCont;bars;5;1812;orange;orange,red,blue,white,purple;210,300,390,480,570;180,210,240,270,300;32;1;1;12wz8v33a9awf4m;true;716.405;390;195;psychophysics;342381;experimental_data;NULL;NULL;NULL;NULL;15_11_2020_3_30_44
55;23;2;noStructureCont;query;5;872;orange;orange,red,blue,white,purple;210,300,390,480,570;180,210,240,270,300;49;1;1;12wz8v33a9awf4m;true;705.736;390;195;psychophysics;344258;experimental_data;NULL;NULL;NULL;NULL;15_11_2020_3_30_44
56;6;2;noStructureCont;bars;2;509;black;purple,black;300,39;270,3;32;2;2;12wz8v33a9awf4m;true;704.139;390;195;psychophysics;346772;experimental_data;NULL;NULL;NULL;NULL;15_11_2020_3_30_44
56;6;2;noStructureCont;query;2;367;black;purple,black;300,39;270,3;50;2;2;12wz8v33a9awf4m;true;694.483;390;195;psychophysics;348145;experimental_data;NULL;NULL;NULL;NULL;15_11_2020_3_30_44
57;27;2;noStructureCont;bars;6;4573;pink;yellow,pink,purple,red,saddlebrown,blue;120,210,300,390,480,570;150,180,210,240,270,300;32;2;2;12wz8v33a9awf4m;true;105.044;390;195;psychophysics;354725;experimental_data;NULL;NULL;NULL;NULL;15_11_2020_3_30_44
57;27;2;noStructureCont;query;6;724;pink;yellow,pink,purple,red,saddlebrown,blue;120,210,300,390,480,570;150,180,210,240,270,300;50;2;2;12wz8v33a9awf4m;true;722.232;390;195;psychophysics;356453;experimental_data;NULL;NULL;NULL;NULL;15_11_2020_3_30_44
58;5;2;noStructureCont;bars;2;757;green;green,yellow;300,39;240,27;32;1;1;12wz8v33a9awf4m;true;721.116;390;195;psychophysics;359218;experimental_data;NULL;NULL;NULL;NULL;15_11_2020_3_30_44
58;5;2;noStructureCont;query;2;547;green;green,yellow;300,39;240,27;49;1;1;12wz8v33a9awf4m;true;694.397;390;195;psychophysics;360770;experimental_data;NULL;NULL;NULL;NULL;15_11_2020_3_30_44
59;1;2;noStructureCont;bars;1;528;saddlebrown;saddlebrown;390;210;32;1;1;12wz8v33a9awf4m;true;703.792;390;195;psychophysics;363305;experimental_data;NULL;NULL;NULL;NULL;15_11_2020_3_30_44
59;1;2;noStructureCont;query;1;645;saddlebrown;saddlebrown;390;210;49;1;1;12wz8v33a9awf4m;true;702.132;390;195;psychophysics;364954;experimental_data;NULL;NULL;NULL;NULL;15_11_2020_3_30_44
60;19;2;noStructureCont;bars;4;1302;blue;blue,orange,black,pink;210,300,390,480;240,270,300,330;32;1;1;12wz8v33a9awf4m;true;713.431;390;195;psychophysics;368264;experimental_data;NULL;NULL;NULL;NULL;15_11_2020_3_30_44
60;19;2;noStructureCont;query;4;947;blue;blue,orange,black,pink;210,300,390,480;240,270,300,330;49;1;1;12wz8v33a9awf4m;true;704.804;390;195;psychophysics;370214;experimental_data;NULL;NULL;NULL;NULL;15_11_2020_3_30_44
61;14;2;noStructureCont;bars;3;943;yellow;yellow,pink,white;300,390,480;240,270,300;32;1;1;12wz8v33a9awf4m;true;704.892;390;195;psychophysics;373164;experimental_data;NULL;NULL;NULL;NULL;15_11_2020_3_30_44
61;14;2;noStructureCont;query;3;744;yellow;yellow,pink,white;300,390,480;240,270,300;49;1;1;12wz8v33a9awf4m;true;707.858;390;195;psychophysics;374913;experimental_data;NULL;NULL;NULL;NULL;15_11_2020_3_30_44
62;34;2;noStructureCont;bars;7;3866;black;red,black,saddlebrown,pink,blue,yellow,purple;120,210,300,390,480,570,660;150,180,210,240,270,300,330;32;2;2;12wz8v33a9awf4m;true;109.495;390;195;psychophysics;380784;experimental_data;NULL;NULL;NULL;NULL;15_11_2020_3_30_44
62;34;2;noStructureCont;query;7;637;black;red,black,saddlebrown,pink,blue,yellow,purple;120,210,300,390,480,570,660;150,180,210,240,270,300,330;50;2;2;12wz8v33a9awf4m;true;702.204;390;195;psychophysics;382426;experimental_data;NULL;NULL;NULL;NULL;15_11_2020_3_30_44
63;13;2;noStructureCont;bars;3;1561;black;black,saddlebrown,blue;300,390,480;240,270,300;32;1;1;12wz8v33a9awf4m;true;707.074;390;195;psychophysics;385994;experimental_data;NULL;NULL;NULL;NULL;15_11_2020_3_30_44
63;13;2;noStructureCont;query;3;1030;black;black,saddlebrown,blue;300,390,480;240,270,300;49;1;1;12wz8v33a9awf4m;true;708.808;390;195;psychophysics;388029;experimental_data;NULL;NULL;NULL;NULL;15_11_2020_3_30_44
64;25;2;noStructureCont;bars;6;3698;green;pink,orange,blue,red,green,yellow;120,210,300,390,480,570;180,210,240,270,300,330;32;5;5;12wz8v33a9awf4m;true;111.615;390;195;psychophysics;393737;experimental_data;NULL;NULL;NULL;NULL;15_11_2020_3_30_44
64;25;2;noStructureCont;query;6;1815;green;pink,orange,blue,red,green,yellow;120,210,300,390,480,570;180,210,240,270,300,330;53;5;5;12wz8v33a9awf4m;true;713.555;390;195;psychophysics;396558;experimental_data;NULL;NULL;NULL;NULL;15_11_2020_3_30_44
65;30;2;noStructureCont;bars;7;4086;white;white,blue,green,pink,black,red,orange;120,210,300,390,480,570,660;150,180,210,240,270,300,330;32;1;1;12wz8v33a9awf4m;true;106.991;390;195;psychophysics;402649;experimental_data;NULL;NULL;NULL;NULL;15_11_2020_3_30_44
65;30;2;noStructureCont;query;7;605;white;white,blue,green,pink,black,red,orange;120,210,300,390,480,570,660;150,180,210,240,270,300,330;49;1;1;12wz8v33a9awf4m;true;727.881;390;195;psychophysics;404257;experimental_data;NULL;NULL;NULL;NULL;15_11_2020_3_30_44
66;17;2;noStructureCont;bars;4;1876;orange;red,orange,yellow,black;210,300,390,480;210,240,270,300;32;2;2;12wz8v33a9awf4m;true;710.242;390;195;psychophysics;408140;experimental_data;NULL;NULL;NULL;NULL;15_11_2020_3_30_44
66;17;2;noStructureCont;query;4;1291;orange;red,orange,yellow,black;210,300,390,480;210,240,270,300;50;2;2;12wz8v33a9awf4m;true;705.917;390;195;psychophysics;410435;experimental_data;NULL;NULL;NULL;NULL;15_11_2020_3_30_44
67;26;2;noStructureCont;bars;6;1553;blue;saddlebrown,white,red,blue,orange,pink;120,210,300,390,480,570;150,180,210,240,270,300;32;4;4;12wz8v33a9awf4m;true;703.901;390;195;psychophysics;413994;experimental_data;NULL;NULL;NULL;NULL;15_11_2020_3_30_44
67;26;2;noStructureCont;query;6;1273;blue;saddlebrown,white,red,blue,orange,pink;120,210,300,390,480,570;150,180,210,240,270,300;52;4;4;12wz8v33a9awf4m;true;718.111;390;195;psychophysics;416271;experimental_data;NULL;NULL;NULL;NULL;15_11_2020_3_30_44
68;33;2;noStructureCont;bars;7;1679;purple;yellow,orange,blue,green,pink,white,purple;120,210,300,390,480,570,660;150,180,210,240,270,300,330;32;7;7;12wz8v33a9awf4m;true;697.347;390;195;psychophysics;419957;experimental_data;NULL;NULL;NULL;NULL;15_11_2020_3_30_44
68;33;2;noStructureCont;query;7;2315;purple;yellow,orange,blue,green,pink,white,purple;120,210,300,390,480,570,660;150,180,210,240,270,300,330;55;7;7;12wz8v33a9awf4m;true;71.154;390;195;psychophysics;423277;experimental_data;NULL;NULL;NULL;NULL;15_11_2020_3_30_44
69;10;2;noStructureCont;bars;3;1042;yellow;yellow,white,red;300,390,480;180,210,240;32;1;1;12wz8v33a9awf4m;true;699.114;390;195;psychophysics;426327;experimental_data;NULL;NULL;NULL;NULL;15_11_2020_3_30_44
69;10;2;noStructureCont;query;3;767;yellow;yellow,white,red;300,390,480;180,210,240;49;1;1;12wz8v33a9awf4m;true;707.299;390;195;psychophysics;428098;experimental_data;NULL;NULL;NULL;NULL;15_11_2020_3_30_44
70;28;2;noStructureCont;bars;6;1271;saddlebrown;white,purple,black,blue,saddlebrown,yellow;120,210,300,390,480,570;150,180,210,240,270,300;32;5;5;12wz8v33a9awf4m;true;698.246;390;195;psychophysics;431376;experimental_data;NULL;NULL;NULL;NULL;15_11_2020_3_30_44
70;28;2;noStructureCont;query;6;1489;saddlebrown;white,purple,black,blue,saddlebrown,yellow;120,210,300,390,480,570;150,180,210,240,270,300;53;5;5;12wz8v33a9awf4m;true;704.312;390;195;psychophysics;433871;experimental_data;NULL;NULL;NULL;NULL;15_11_2020_3_30_44
NULL;NULL;0;NULL;end_of_block;NULL;1826;NULL;NULL;NULL;NULL;32;NULL;NULL;12wz8v33a9awf4m;NULL;NULL;NULL;NULL;html-keyboard-response;436701;experimental_data;436720;727.867;1;NULL;15_11_2020_3_30_44
71;25;3;noStructureExp;bars;6;3447;white;pink,blue,purple,saddlebrown,white,green;390,570,480,210,120,300;180,210,240,270,300,330;32;5;5;12wz8v33a9awf4m;true;70.295;390;195;psychophysics;441152;experimental_data;NULL;NULL;NULL;NULL;15_11_2020_3_30_44
71;25;3;noStructureExp;query;6;1837;white;pink,blue,purple,saddlebrown,white,green;390,570,480,210,120,300;180,210,240,270,300,330;53;5;5;12wz8v33a9awf4m;true;702.469;390;195;psychophysics;443994;experimental_data;NULL;NULL;NULL;NULL;15_11_2020_3_30_44
72;32;3;noStructureExp;bars;7;3738;green;black,blue,yellow,orange,pink,white,green;210,300,480,120,390,660,570;150,180,210,240,270,300,330;32;7;7;12wz8v33a9awf4m;true;116.174;390;195;psychophysics;449740;experimental_data;NULL;NULL;NULL;NULL;15_11_2020_3_30_44
72;32;3;noStructureExp;query;7;2629;green;black,blue,yellow,orange,pink,white,green;210,300,480,120,390,660,570;150,180,210,240,270,300,330;55;7;7;12wz8v33a9awf4m;true;701.875;390;195;psychophysics;453374;experimental_data;NULL;NULL;NULL;NULL;15_11_2020_3_30_44
73;7;3;noStructureExp;bars;2;636;red;blue,red;300,39;150,18;32;2;2;12wz8v33a9awf4m;true;702.093;390;195;psychophysics;456018;experimental_data;NULL;NULL;NULL;NULL;15_11_2020_3_30_44
73;7;3;noStructureExp;query;2;938;red;blue,red;300,39;150,18;50;2;2;12wz8v33a9awf4m;true;710.344;390;195;psychophysics;457960;experimental_data;NULL;NULL;NULL;NULL;15_11_2020_3_30_44
74;10;3;noStructureExp;bars;3;1328;red;red,green,pink;300,480,390;180,210,240;32;1;1;12wz8v33a9awf4m;true;701.805;390;195;psychophysics;461295;experimental_data;NULL;NULL;NULL;NULL;15_11_2020_3_30_44
74;10;3;noStructureExp;query;3;873;red;red,green,pink;300,480,390;180,210,240;49;1;1;12wz8v33a9awf4m;true;700.048;390;195;psychophysics;463173;experimental_data;NULL;NULL;NULL;NULL;15_11_2020_3_30_44
75;4;3;noStructureExp;bars;1;468;red;red;390;270;32;1;1;12wz8v33a9awf4m;true;715.817;390;195;psychophysics;465649;experimental_data;NULL;NULL;NULL;NULL;15_11_2020_3_30_44
75;4;3;noStructureExp;query;1;326;red;red;390;270;49;1;1;12wz8v33a9awf4m;true;69.448;390;195;psychophysics;466979;experimental_data;NULL;NULL;NULL;NULL;15_11_2020_3_30_44
76;29;3;noStructureExp;bars;6;1624;yellow;purple,red,orange,blue,black,yellow;300,390,570,120,480,210;150,180,210,240,270,300;32;6;5;12wz8v33a9awf4m;false;697.426;390;195;psychophysics;470610;experimental_data;NULL;NULL;NULL;NULL;15_11_2020_3_30_44
76;29;3;noStructureExp;query;6;1376;yellow;purple,red,orange,blue,black,yellow;300,390,570,120,480,210;150,180,210,240,270,300;53;6;5;12wz8v33a9awf4m;false;697.976;390;195;psychophysics;472992;experimental_data;NULL;NULL;NULL;NULL;15_11_2020_3_30_44
77;17;3;noStructureExp;bars;4;1706;black;white,black,pink,red;210,300,480,390;210,240,270,300;32;2;2;12wz8v33a9awf4m;true;714.872;390;195;psychophysics;476703;experimental_data;NULL;NULL;NULL;NULL;15_11_2020_3_30_44
77;17;3;noStructureExp;query;4;1094;black;white,black,pink,red;210,300,480,390;210,240,270,300;50;2;2;12wz8v33a9awf4m;true;70.796;390;195;psychophysics;478802;experimental_data;NULL;NULL;NULL;NULL;15_11_2020_3_30_44
78;1;3;noStructureExp;bars;1;443;black;black;390;210;32;1;1;12wz8v33a9awf4m;true;705.632;390;195;psychophysics;481253;experimental_data;NULL;NULL;NULL;NULL;15_11_2020_3_30_44
78;1;3;noStructureExp;query;1;322;black;black;390;210;49;1;1;12wz8v33a9awf4m;true;709.907;390;195;psychophysics;482579;experimental_data;NULL;NULL;NULL;NULL;15_11_2020_3_30_44
79;26;3;noStructureExp;bars;6;2621;pink;purple,white,black,pink,green,yellow;480,120,570,210,300,390;150,180,210,240,270,300;32;4;4;12wz8v33a9awf4m;true;703.771;390;195;psychophysics;487208;experimental_data;NULL;NULL;NULL;NULL;15_11_2020_3_30_44
79;26;3;noStructureExp;query;6;2393;pink;purple,white,black,pink,green,yellow;480,120,570,210,300,390;150,180,210,240,270,300;52;4;4;12wz8v33a9awf4m;true;704.686;390;195;psychophysics;490604;experimental_data;NULL;NULL;NULL;NULL;15_11_2020_3_30_44
80;2;3;noStructureExp;bars;1;451;white;white;390;210;32;1;1;12wz8v33a9awf4m;true;728.618;390;195;psychophysics;493060;experimental_data;NULL;NULL;NULL;NULL;15_11_2020_3_30_44
80;2;3;noStructureExp;query;1;366;white;white;390;210;49;1;1;12wz8v33a9awf4m;true;694.445;390;195;psychophysics;494429;experimental_data;NULL;NULL;NULL;NULL;15_11_2020_3_30_44
81;11;3;noStructureExp;bars;3;787;orange;orange,red,black;300,480,390;180,210,240;32;1;1;12wz8v33a9awf4m;true;706.915;390;195;psychophysics;497224;experimental_data;NULL;NULL;NULL;NULL;15_11_2020_3_30_44
81;11;3;noStructureExp;query;3;734;orange;orange,red,black;300,480,390;180,210,240;49;1;1;12wz8v33a9awf4m;true;714.897;390;195;psychophysics;498968;experimental_data;NULL;NULL;NULL;NULL;15_11_2020_3_30_44
82;12;3;noStructureExp;bars;3;1050;green;green,yellow,red;300,480,390;180,210,240;32;1;1;12wz8v33a9awf4m;true;713.387;390;195;psychophysics;502023;experimental_data;NULL;NULL;NULL;NULL;15_11_2020_3_30_44
82;12;3;noStructureExp;query;3;898;green;green,yellow,red;300,480,390;180,210,240;49;1;1;12wz8v33a9awf4m;true;705.443;390;195;psychophysics;503924;experimental_data;NULL;NULL;NULL;NULL;15_11_2020_3_30_44
83;30;3;noStructureExp;bars;7;2529;white;white,purple,black,green,blue,orange,saddlebrown;210,120,300,570,660,480,390;150,180,210,240,270,300,330;32;1;1;12wz8v33a9awf4m;true;720.165;390;195;psychophysics;508461;experimental_data;NULL;NULL;NULL;NULL;15_11_2020_3_30_44
83;30;3;noStructureExp;query;7;1006;white;white,purple,black,green,blue,orange,saddlebrown;210,120,300,570,660,480,390;150,180,210,240,270,300,330;49;1;1;12wz8v33a9awf4m;true;709.054;390;195;psychophysics;510472;experimental_data;NULL;NULL;NULL;NULL;15_11_2020_3_30_44
84;22;3;noStructureExp;bars;5;2195;orange;red,orange,white,blue,saddlebrown;570,390,300,210,480;210,240,270,300,330;32;2;2;12wz8v33a9awf4m;true;70.786;390;195;psychophysics;514675;experimental_data;NULL;NULL;NULL;NULL;15_11_2020_3_30_44
84;22;3;noStructureExp;query;5;1149;orange;red,orange,white,blue,saddlebrown;570,390,300,210,480;210,240,270,300,330;50;2;2;12wz8v33a9awf4m;true;716.178;390;195;psychophysics;516830;experimental_data;NULL;NULL;NULL;NULL;15_11_2020_3_30_44
85;13;3;noStructureExp;bars;3;533;black;black,saddlebrown,orange;300,390,480;240,270,300;32;1;1;12wz8v33a9awf4m;true;694.447;390;195;psychophysics;519370;experimental_data;NULL;NULL;NULL;NULL;15_11_2020_3_30_44
85;13;3;noStructureExp;query;3;1156;black;black,saddlebrown,orange;300,390,480;240,270,300;49;1;1;12wz8v33a9awf4m;true;70.291;390;195;psychophysics;521531;experimental_data;NULL;NULL;NULL;NULL;15_11_2020_3_30_44
86;9;3;noStructureExp;bars;2;620;pink;pink,blue;300,39;300,33;32;1;1;12wz8v33a9awf4m;true;727.527;390;195;psychophysics;524157;experimental_data;NULL;NULL;NULL;NULL;15_11_2020_3_30_44
86;9;3;noStructureExp;query;2;540;pink;pink,blue;300,39;300,33;49;1;1;12wz8v33a9awf4m;true;694.468;390;195;psychophysics;525701;experimental_data;NULL;NULL;NULL;NULL;15_11_2020_3_30_44
87;24;3;noStructureExp;bars;5;1361;green;white,saddlebrown,green,red,orange;390,300,210,480,570;180,210,240,270,300;32;3;3;12wz8v33a9awf4m;true;925.878;390;195;psychophysics;529069;experimental_data;NULL;NULL;NULL;NULL;15_11_2020_3_30_44
87;24;3;noStructureExp;query;5;650;green;white,saddlebrown,green,red,orange;390,300,210,480,570;180,210,240,270,300;51;3;3;12wz8v33a9awf4m;true;733.885;390;195;psychophysics;530723;experimental_data;NULL;NULL;NULL;NULL;15_11_2020_3_30_44
88;27;3;noStructureExp;bars;6;2459;saddlebrown;blue,saddlebrown,red,black,orange,green;570,390,300,120,210,480;150,180,210,240,270,300;32;2;2;12wz8v33a9awf4m;true;70.642;390;195;psychophysics;535187;experimental_data;NULL;NULL;NULL;NULL;15_11_2020_3_30_44
88;27;3;noStructureExp;query;6;1205;saddlebrown;blue,saddlebrown,red,black,orange,green;570,390,300,120,210,480;150,180,210,240,270,300;50;2;2;12wz8v33a9awf4m;true;719.384;390;195;psychophysics;537397;experimental_data;NULL;NULL;NULL;NULL;15_11_2020_3_30_44
89;19;3;noStructureExp;bars;4;1971;black;black,yellow,orange,pink;210,300,390,480;240,270,300,330;32;1;1;12wz8v33a9awf4m;true;70.689;390;195;psychophysics;541375;experimental_data;NULL;NULL;NULL;NULL;15_11_2020_3_30_44
89;19;3;noStructureExp;query;4;1807;black;black,yellow,orange,pink;210,300,390,480;240,270,300,330;49;1;1;12wz8v33a9awf4m;true;708.075;390;195;psychophysics;544187;experimental_data;NULL;NULL;NULL;NULL;15_11_2020_3_30_44
90;3;3;noStructureExp;bars;1;433;red;red;390;300;32;1;1;12wz8v33a9awf4m;true;70.583;390;195;psychophysics;546626;experimental_data;NULL;NULL;NULL;NULL;15_11_2020_3_30_44
90;3;3;noStructureExp;query;1;317;red;red;390;300;49;1;1;12wz8v33a9awf4m;true;709.971;390;195;psychophysics;547951;experimental_data;NULL;NULL;NULL;NULL;15_11_2020_3_30_44
91;28;3;noStructureExp;bars;6;1372;red;purple,white,black,yellow,red,orange;390,480,210,300,570,120;150,180,210,240,270,300;32;5;4;12wz8v33a9awf4m;false;701.568;390;195;psychophysics;551329;experimental_data;NULL;NULL;NULL;NULL;15_11_2020_3_30_44
91;28;3;noStructureExp;query;6;862;red;purple,white,black,yellow,red,orange;390,480,210,300,570,120;150,180,210,240,270,300;52;5;4;12wz8v33a9awf4m;false;694.492;390;195;psychophysics;553195;experimental_data;NULL;NULL;NULL;NULL;15_11_2020_3_30_44
92;23;3;noStructureExp;bars;5;2764;green;green,black,purple,yellow,orange;480,570,390,210,300;180,210,240,270,300;32;1;1;12wz8v33a9awf4m;true;746.999;390;195;psychophysics;557965;experimental_data;NULL;NULL;NULL;NULL;15_11_2020_3_30_44
92;23;3;noStructureExp;query;5;938;green;green,black,purple,yellow,orange;480,570,390,210,300;180,210,240,270,300;49;1;1;12wz8v33a9awf4m;true;694.452;390;195;psychophysics;559908;experimental_data;NULL;NULL;NULL;NULL;15_11_2020_3_30_44
93;34;3;noStructureExp;bars;7;3140;green;blue,green,red,yellow,saddlebrown,black,purple;660,120,570,390,300,480,210;150,180,210,240,270,300,330;32;2;2;12wz8v33a9awf4m;true;700.645;390;195;psychophysics;565054;experimental_data;NULL;NULL;NULL;NULL;15_11_2020_3_30_44
93;34;3;noStructureExp;query;7;1144;green;blue,green,red,yellow,saddlebrown,black,purple;660,120,570,390,300,480,210;150,180,210,240,270,300,330;50;2;2;12wz8v33a9awf4m;true;716.284;390;195;psychophysics;567207;experimental_data;NULL;NULL;NULL;NULL;15_11_2020_3_30_44
94;21;3;noStructureExp;bars;5;2037;pink;blue,orange,purple,green,pink;480,210,300,390,570;150,180,210,240,270;32;5;5;12wz8v33a9awf4m;true;699.202;390;195;psychophysics;571250;experimental_data;NULL;NULL;NULL;NULL;15_11_2020_3_30_44
94;21;3;noStructureExp;query;5;1120;pink;blue,orange,purple,green,pink;480,210,300,390,570;150,180,210,240,270;53;5;5;12wz8v33a9awf4m;true;707.618;390;195;psychophysics;573373;experimental_data;NULL;NULL;NULL;NULL;15_11_2020_3_30_44
95;16;3;noStructureExp;bars;4;1496;black;green,black,saddlebrown,orange;300,390,480,210;240,270,300,330;32;2;2;12wz8v33a9awf4m;true;704.331;390;195;psychophysics;576877;experimental_data;NULL;NULL;NULL;NULL;15_11_2020_3_30_44
95;16;3;noStructureExp;query;4;980;black;green,black,saddlebrown,orange;300,390,480,210;240,270,300,330;50;2;2;12wz8v33a9awf4m;true;704.433;390;195;psychophysics;578862;experimental_data;NULL;NULL;NULL;NULL;15_11_2020_3_30_44
96;14;3;noStructureExp;bars;3;697;green;green,saddlebrown,yellow;300,390,480;240,270,300;32;1;1;12wz8v33a9awf4m;true;69.444;390;195;psychophysics;581567;experimental_data;NULL;NULL;NULL;NULL;15_11_2020_3_30_44
96;14;3;noStructureExp;query;3;746;green;green,saddlebrown,yellow;300,390,480;240,270,300;49;1;1;12wz8v33a9awf4m;true;707.547;390;195;psychophysics;583319;experimental_data;NULL;NULL;NULL;NULL;15_11_2020_3_30_44
97;0;3;noStructureExp;bars;1;639;red;red;390;210;32;1;1;12wz8v33a9awf4m;true;702.141;390;195;psychophysics;585964;experimental_data;NULL;NULL;NULL;NULL;15_11_2020_3_30_44
97;0;3;noStructureExp;query;1;262;red;red;390;210;49;1;1;12wz8v33a9awf4m;true;694.468;390;195;psychophysics;587230;experimental_data;NULL;NULL;NULL;NULL;15_11_2020_3_30_44
98;31;3;noStructureExp;bars;7;1839;orange;red,saddlebrown,orange,green,black,yellow,blue;570,660,120,390,300,480,210;150,180,210,240,270,300,330;32;3;3;12wz8v33a9awf4m;true;713.358;390;195;psychophysics;591075;experimental_data;NULL;NULL;NULL;NULL;15_11_2020_3_30_44
98;31;3;noStructureExp;query;7;884;orange;red,saddlebrown,orange,green,black,yellow,blue;570,660,120,390,300,480,210;150,180,210,240,270,300,330;51;3;3;12wz8v33a9awf4m;true;705.578;390;195;psychophysics;592964;experimental_data;NULL;NULL;NULL;NULL;15_11_2020_3_30_44
99;6;3;noStructureExp;bars;2;787;blue;saddlebrown,blue;390,3;270,3;32;2;2;12wz8v33a9awf4m;true;700.659;390;195;psychophysics;595759;experimental_data;NULL;NULL;NULL;NULL;15_11_2020_3_30_44
99;6;3;noStructureExp;query;2;1173;blue;saddlebrown,blue;390,3;270,3;50;2;2;12wz8v33a9awf4m;true;715.731;390;195;psychophysics;597937;experimental_data;NULL;NULL;NULL;NULL;15_11_2020_3_30_44
100;33;3;noStructureExp;bars;7;3076;yellow;pink,red,blue,white,black,green,yellow;660,300,390,570,210,480,120;150,180,210,240,270,300,330;32;7;5;12wz8v33a9awf4m;false;70.884;390;195;psychophysics;603020;experimental_data;NULL;NULL;NULL;NULL;15_11_2020_3_30_44
100;33;3;noStructureExp;query;7;1530;yellow;pink,red,blue,white,black,green,yellow;660,300,390,570,210,480,120;150,180,210,240,270,300,330;53;7;5;12wz8v33a9awf4m;false;704.055;390;195;psychophysics;605555;experimental_data;NULL;NULL;NULL;NULL;15_11_2020_3_30_44
101;15;3;noStructureExp;bars;4;1294;blue;purple,orange,pink,blue;210,390,480,300;150,180,210,240;32;4;4;12wz8v33a9awf4m;true;705.844;390;195;psychophysics;608855;experimental_data;NULL;NULL;NULL;NULL;15_11_2020_3_30_44
101;15;3;noStructureExp;query;4;1155;blue;purple,orange,pink,blue;210,390,480,300;150,180,210,240;52;4;4;12wz8v33a9awf4m;true;716.019;390;195;psychophysics;611015;experimental_data;NULL;NULL;NULL;NULL;15_11_2020_3_30_44
102;18;3;noStructureExp;bars;4;1268;black;black,red,white,yellow;480,300,390,210;150,180,210,240;32;1;1;12wz8v33a9awf4m;true;706.164;390;195;psychophysics;614292;experimental_data;NULL;NULL;NULL;NULL;15_11_2020_3_30_44
102;18;3;noStructureExp;query;4;742;black;black,red,white,yellow;480,300,390,210;150,180,210,240;49;1;1;12wz8v33a9awf4m;true;701.084;390;195;psychophysics;616038;experimental_data;NULL;NULL;NULL;NULL;15_11_2020_3_30_44
103;20;3;noStructureExp;bars;5;1861;white;blue,green,red,saddlebrown,white;210,570,300,390,480;150,180,210,240,270;32;5;5;12wz8v33a9awf4m;true;707.705;390;195;psychophysics;619906;experimental_data;NULL;NULL;NULL;NULL;15_11_2020_3_30_44
103;20;3;noStructureExp;query;5;1827;white;blue,green,red,saddlebrown,white;210,570,300,390,480;150,180,210,240,270;53;5;5;12wz8v33a9awf4m;true;721.898;390;195;psychophysics;622737;experimental_data;NULL;NULL;NULL;NULL;15_11_2020_3_30_44
104;8;3;noStructureExp;bars;2;724;white;black,white;300,39;240,27;32;2;2;12wz8v33a9awf4m;true;694.431;390;195;psychophysics;625468;experimental_data;NULL;NULL;NULL;NULL;15_11_2020_3_30_44
104;8;3;noStructureExp;query;2;627;white;black,white;300,39;240,27;50;2;2;12wz8v33a9awf4m;true;735.295;390;195;psychophysics;627100;experimental_data;NULL;NULL;NULL;NULL;15_11_2020_3_30_44
105;5;3;noStructureExp;bars;2;630;orange;orange,blue;300,39;240,27;32;1;1;12wz8v33a9awf4m;true;694.466;390;195;psychophysics;629735;experimental_data;NULL;NULL;NULL;NULL;15_11_2020_3_30_44
105;5;3;noStructureExp;query;2;705;orange;orange,blue;300,39;240,27;49;1;1;12wz8v33a9awf4m;true;701.483;390;195;psychophysics;631445;experimental_data;NULL;NULL;NULL;NULL;15_11_2020_3_30_44
NULL;NULL;0;NULL;end_of_block;NULL;1275;NULL;NULL;NULL;NULL;32;NULL;NULL;12wz8v33a9awf4m;NULL;NULL;NULL;NULL;html-keyboard-response;633724;experimental_data;633743;105.624;0.914286;NULL;15_11_2020_3_30_44
106;3;4;queryStructureCont;bars;1;540;pink;pink;390;300;32;1;1;12wz8v33a9awf4m;true;703.609;390;195;psychophysics;635274;experimental_data;NULL;NULL;NULL;NULL;15_11_2020_3_30_44
106;3;4;queryStructureCont;query;1;326;pink;pink;390;300;49;1;1;12wz8v33a9awf4m;true;694.434;390;195;psychophysics;636605;experimental_data;NULL;NULL;NULL;NULL;15_11_2020_3_30_44
107;21;4;queryStructureCont;bars;5;757;red;pink,blue,saddlebrown,purple,red;210,300,390,480,570;150,180,210,240,270;32;5;4;12wz8v33a9awf4m;false;700.884;390;195;psychophysics;639370;experimental_data;NULL;NULL;NULL;NULL;15_11_2020_3_30_44
107;21;4;queryStructureCont;query;5;1453;red;pink,blue,saddlebrown,purple,red;210,300,390,480,570;150,180,210,240,270;52;5;4;12wz8v33a9awf4m;false;704.572;390;195;psychophysics;641828;experimental_data;NULL;NULL;NULL;NULL;15_11_2020_3_30_44
108;13;4;queryStructureCont;bars;3;428;blue;red,white,blue;300,390,480;240,270,300;32;3;3;12wz8v33a9awf4m;true;694.449;390;195;psychophysics;644266;experimental_data;NULL;NULL;NULL;NULL;15_11_2020_3_30_44
108;13;4;queryStructureCont;query;3;771;blue;red,white,blue;300,390,480;240,270,300;51;3;3;12wz8v33a9awf4m;true;694.441;390;195;psychophysics;646043;experimental_data;NULL;NULL;NULL;NULL;15_11_2020_3_30_44
109;1;4;queryStructureCont;bars;1;402;green;green;390;210;32;1;1;12wz8v33a9awf4m;true;707.118;390;195;psychophysics;648449;experimental_data;NULL;NULL;NULL;NULL;15_11_2020_3_30_44
109;1;4;queryStructureCont;query;1;283;green;green;390;210;49;1;1;12wz8v33a9awf4m;true;69.443;390;195;psychophysics;649737;experimental_data;NULL;NULL;NULL;NULL;15_11_2020_3_30_44
110;20;4;queryStructureCont;bars;5;788;orange;pink,purple,red,blue,orange;210,300,390,480,570;150,180,210,240,270;32;5;5;12wz8v33a9awf4m;true;73.331;390;195;psychophysics;652531;experimental_data;NULL;NULL;NULL;NULL;15_11_2020_3_30_44
110;20;4;queryStructureCont;query;5;1172;orange;pink,purple,red,blue,orange;210,300,390,480,570;150,180,210,240,270;53;5;5;12wz8v33a9awf4m;true;698.615;390;195;psychophysics;654709;experimental_data;NULL;NULL;NULL;NULL;15_11_2020_3_30_44
111;10;4;queryStructureCont;bars;3;551;purple;white,saddlebrown,purple;300,390,480;180,210,240;32;3;3;12wz8v33a9awf4m;true;731.427;390;195;psychophysics;657268;experimental_data;NULL;NULL;NULL;NULL;15_11_2020_3_30_44
111;10;4;queryStructureCont;query;3;664;purple;white,saddlebrown,purple;300,390,480;180,210,240;51;3;3;12wz8v33a9awf4m;true;717.113;390;195;psychophysics;658936;experimental_data;NULL;NULL;NULL;NULL;15_11_2020_3_30_44
112;12;4;queryStructureCont;bars;3;618;pink;black,white,pink;300,390,480;180,210,240;32;3;3;12wz8v33a9awf4m;true;702.459;390;195;psychophysics;661561;experimental_data;NULL;NULL;NULL;NULL;15_11_2020_3_30_44
112;12;4;queryStructureCont;query;3;568;pink;black,white,pink;300,390,480;180,210,240;51;3;3;12wz8v33a9awf4m;true;711.831;390;195;psychophysics;663133;experimental_data;NULL;NULL;NULL;NULL;15_11_2020_3_30_44
113;16;4;queryStructureCont;bars;4;1564;green;blue,red,yellow,green;210,300,390,480;240,270,300,330;32;4;4;12wz8v33a9awf4m;true;703.823;390;195;psychophysics;666703;experimental_data;NULL;NULL;NULL;NULL;15_11_2020_3_30_44
113;16;4;queryStructureCont;query;4;479;green;blue,red,yellow,green;210,300,390,480;240,270,300,330;52;4;4;12wz8v33a9awf4m;true;715.136;390;195;psychophysics;668187;experimental_data;NULL;NULL;NULL;NULL;15_11_2020_3_30_44
114;6;4;queryStructureCont;bars;2;578;pink;green,pink;300,39;270,3;32;2;2;12wz8v33a9awf4m;true;702.959;390;195;psychophysics;670774;experimental_data;NULL;NULL;NULL;NULL;15_11_2020_3_30_44
114;6;4;queryStructureCont;query;2;535;pink;green,pink;300,39;270,3;50;2;2;12wz8v33a9awf4m;true;713.251;390;195;psychophysics;672315;experimental_data;NULL;NULL;NULL;NULL;15_11_2020_3_30_44
115;17;4;queryStructureCont;bars;4;879;black;purple,saddlebrown,green,black;210,300,390,480;210,240,270,300;32;4;4;12wz8v33a9awf4m;true;723.144;390;195;psychophysics;675198;experimental_data;NULL;NULL;NULL;NULL;15_11_2020_3_30_44
115;17;4;queryStructureCont;query;4;879;black;purple,saddlebrown,green,black;210,300,390,480;210,240,270,300;52;4;4;12wz8v33a9awf4m;true;694.459;390;195;psychophysics;677082;experimental_data;NULL;NULL;NULL;NULL;15_11_2020_3_30_44
116;23;4;queryStructureCont;bars;5;848;white;orange,green,yellow,saddlebrown,white;210,300,390,480,570;180,210,240,270,300;32;5;6;12wz8v33a9awf4m;false;694.393;390;195;psychophysics;679937;experimental_data;NULL;NULL;NULL;NULL;15_11_2020_3_30_44
116;23;4;queryStructureCont;query;5;1361;white;orange,green,yellow,saddlebrown,white;210,300,390,480,570;180,210,240,270,300;54;5;6;12wz8v33a9awf4m;false;708.975;390;195;psychophysics;682304;experimental_data;NULL;NULL;NULL;NULL;15_11_2020_3_30_44
117;33;4;queryStructureCont;bars;7;2261;purple;black,yellow,orange,white,pink,saddlebrown,purple;120,210,300,390,480,570,660;150,180,210,240,270,300,330;32;7;7;12wz8v33a9awf4m;true;700.919;390;195;psychophysics;686569;experimental_data;NULL;NULL;NULL;NULL;15_11_2020_3_30_44
117;33;4;queryStructureCont;query;7;1515;purple;black,yellow,orange,white,pink,saddlebrown,purple;120,210,300,390,480,570,660;150,180,210,240,270,300,330;55;7;7;12wz8v33a9awf4m;true;704.137;390;195;psychophysics;689090;experimental_data;NULL;NULL;NULL;NULL;15_11_2020_3_30_44
118;9;4;queryStructureCont;bars;2;495;blue;orange,blue;300,39;300,33;32;2;2;12wz8v33a9awf4m;true;69.448;390;195;psychophysics;691590;experimental_data;NULL;NULL;NULL;NULL;15_11_2020_3_30_44
118;9;4;queryStructureCont;query;2;621;blue;orange,blue;300,39;300,33;50;2;2;12wz8v33a9awf4m;true;710.351;390;195;psychophysics;693217;experimental_data;NULL;NULL;NULL;NULL;15_11_2020_3_30_44
119;25;4;queryStructureCont;bars;6;1154;blue;black,purple,red,saddlebrown,orange,blue;120,210,300,390,480,570;180,210,240,270,300,330;32;6;5;12wz8v33a9awf4m;false;716.007;390;195;psychophysics;696375;experimental_data;NULL;NULL;NULL;NULL;15_11_2020_3_30_44
119;25;4;queryStructureCont;query;6;2143;blue;black,purple,red,saddlebrown,orange,blue;120,210,300,390,480,570;180,210,240,270,300,330;53;6;5;12wz8v33a9awf4m;false;705.925;390;195;psychophysics;699522;experimental_data;NULL;NULL;NULL;NULL;15_11_2020_3_30_44
120;30;4;queryStructureCont;bars;7;2376;purple;white,orange,saddlebrown,green,blue,pink,purple;120,210,300,390,480,570,660;150,180,210,240,270,300,330;32;7;6;12wz8v33a9awf4m;false;713.209;390;195;psychophysics;703906;experimental_data;NULL;NULL;NULL;NULL;15_11_2020_3_30_44
120;30;4;queryStructureCont;query;7;1356;purple;white,orange,saddlebrown,green,blue,pink,purple;120,210,300,390,480,570,660;150,180,210,240,270,300,330;54;7;6;12wz8v33a9awf4m;false;712.716;390;195;psychophysics;706266;experimental_data;NULL;NULL;NULL;NULL;15_11_2020_3_30_44
121;15;4;queryStructureCont;bars;4;835;purple;red,green,orange,purple;210,300,390,480;150,180,210,240;32;4;4;12wz8v33a9awf4m;true;712.397;390;195;psychophysics;709108;experimental_data;NULL;NULL;NULL;NULL;15_11_2020_3_30_44
121;15;4;queryStructureCont;query;4;832;purple;red,green,orange,purple;210,300,390,480;150,180,210,240;52;4;4;12wz8v33a9awf4m;true;700.244;390;195;psychophysics;710945;experimental_data;NULL;NULL;NULL;NULL;15_11_2020_3_30_44
122;32;4;queryStructureCont;bars;7;2342;purple;orange,white,black,blue,green,red,purple;120,210,300,390,480,570,660;150,180,210,240,270,300,330;32;7;7;12wz8v33a9awf4m;true;709.212;390;195;psychophysics;715296;experimental_data;NULL;NULL;NULL;NULL;15_11_2020_3_30_44
122;32;4;queryStructureCont;query;7;1412;purple;orange,white,black,blue,green,red,purple;120,210,300,390,480,570,660;150,180,210,240,270,300,330;55;7;7;12wz8v33a9awf4m;true;719.311;390;195;psychophysics;717713;experimental_data;NULL;NULL;NULL;NULL;15_11_2020_3_30_44
123;27;4;queryStructureCont;bars;6;1449;saddlebrown;orange,pink,blue,purple,red,saddlebrown;120,210,300,390,480,570;150,180,210,240,270,300;32;6;5;12wz8v33a9awf4m;false;708.069;390;195;psychophysics;721168;experimental_data;NULL;NULL;NULL;NULL;15_11_2020_3_30_44
123;27;4;queryStructureCont;query;6;1303;saddlebrown;orange,pink,blue,purple,red,saddlebrown;120,210,300,390,480,570;150,180,210,240,270,300;53;6;5;12wz8v33a9awf4m;false;725.477;390;195;psychophysics;723478;experimental_data;NULL;NULL;NULL;NULL;15_11_2020_3_30_44
124;8;4;queryStructureCont;bars;2;662;purple;red,purple;300,39;240,27;32;2;2;12wz8v33a9awf4m;true;709.598;390;195;psychophysics;726145;experimental_data;NULL;NULL;NULL;NULL;15_11_2020_3_30_44
124;8;4;queryStructureCont;query;2;531;purple;red,purple;300,39;240,27;50;2;2;12wz8v33a9awf4m;true;71.323;390;195;psychophysics;727683;experimental_data;NULL;NULL;NULL;NULL;15_11_2020_3_30_44
125;31;4;queryStructureCont;bars;7;1766;white;saddlebrown,pink,orange,purple,green,black,white;120,210,300,390,480,570,660;150,180,210,240,270,300,330;32;7;6;12wz8v33a9awf4m;false;705.559;390;195;psychophysics;731454;experimental_data;NULL;NULL;NULL;NULL;15_11_2020_3_30_44
125;31;4;queryStructureCont;query;7;1356;white;saddlebrown,pink,orange,purple,green,black,white;120,210,300,390,480,570,660;150,180,210,240,270,300,330;54;7;6;12wz8v33a9awf4m;false;712.813;390;195;psychophysics;733814;experimental_data;NULL;NULL;NULL;NULL;15_11_2020_3_30_44
126;24;4;queryStructureCont;bars;5;1407;yellow;pink,green,purple,orange,yellow;210,300,390,480,570;180,210,240,270,300;32;5;5;12wz8v33a9awf4m;true;704.914;390;195;psychophysics;737231;experimental_data;NULL;NULL;NULL;NULL;15_11_2020_3_30_44
126;24;4;queryStructureCont;query;5;1100;yellow;pink,green,purple,orange,yellow;210,300,390,480,570;180,210,240,270,300;53;5;5;12wz8v33a9awf4m;true;698.843;390;195;psychophysics;739337;experimental_data;NULL;NULL;NULL;NULL;15_11_2020_3_30_44
127;5;4;queryStructureCont;bars;2;580;white;pink,white;300,39;240,27;32;2;2;12wz8v33a9awf4m;true;702.928;390;195;psychophysics;741926;experimental_data;NULL;NULL;NULL;NULL;15_11_2020_3_30_44
127;5;4;queryStructureCont;query;2;476;white;pink,white;300,39;240,27;50;2;2;12wz8v33a9awf4m;true;715.486;390;195;psychophysics;743406;experimental_data;NULL;NULL;NULL;NULL;15_11_2020_3_30_44
128;7;4;queryStructureCont;bars;2;666;saddlebrown;white,saddlebrown;300,39;150,18;32;2;2;12wz8v33a9awf4m;true;694.443;390;195;psychophysics;746079;experimental_data;NULL;NULL;NULL;NULL;15_11_2020_3_30_44
128;7;4;queryStructureCont;query;2;418;saddlebrown;white,saddlebrown;300,39;150,18;50;2;2;12wz8v33a9awf4m;true;71.841;390;195;psychophysics;747502;experimental_data;NULL;NULL;NULL;NULL;15_11_2020_3_30_44
129;11;4;queryStructureCont;bars;3;459;white;blue,saddlebrown,white;300,390,480;180,210,240;32;3;3;12wz8v33a9awf4m;true;716.016;390;195;psychophysics;749968;experimental_data;NULL;NULL;NULL;NULL;15_11_2020_3_30_44
129;11;4;queryStructureCont;query;3;545;white;blue,saddlebrown,white;300,390,480;180,210,240;51;3;3;12wz8v33a9awf4m;true;703.616;390;195;psychophysics;751516;experimental_data;NULL;NULL;NULL;NULL;15_11_2020_3_30_44
130;29;4;queryStructureCont;bars;6;1115;pink;red,purple,white,yellow,orange,pink;120,210,300,390,480,570;150,180,210,240,270,300;32;6;6;12wz8v33a9awf4m;true;712.276;390;195;psychophysics;754637;experimental_data;NULL;NULL;NULL;NULL;15_11_2020_3_30_44
130;29;4;queryStructureCont;query;6;1321;pink;red,purple,white,yellow,orange,pink;120,210,300,390,480,570;150,180,210,240,270,300;54;6;6;12wz8v33a9awf4m;true;713.302;390;195;psychophysics;756963;experimental_data;NULL;NULL;NULL;NULL;15_11_2020_3_30_44
131;28;4;queryStructureCont;bars;6;1765;blue;saddlebrown,yellow,black,red,purple,blue;120,210,300,390,480,570;150,180,210,240,270,300;32;6;6;12wz8v33a9awf4m;true;705.612;390;195;psychophysics;760737;experimental_data;NULL;NULL;NULL;NULL;15_11_2020_3_30_44
131;28;4;queryStructureCont;query;6;1329;blue;saddlebrown,yellow,black,red,purple,blue;120,210,300,390,480,570;150,180,210,240,270,300;54;6;6;12wz8v33a9awf4m;true;720.839;390;195;psychophysics;763070;experimental_data;NULL;NULL;NULL;NULL;15_11_2020_3_30_44
132;19;4;queryStructureCont;bars;4;1641;white;saddlebrown,red,orange,white;210,300,390,480;240,270,300,330;32;4;4;12wz8v33a9awf4m;true;694.445;390;195;psychophysics;766716;experimental_data;NULL;NULL;NULL;NULL;15_11_2020_3_30_44
132;19;4;queryStructureCont;query;4;1275;white;saddlebrown,red,orange,white;210,300,390,480;240,270,300,330;52;4;4;12wz8v33a9awf4m;true;702.127;390;195;psychophysics;768995;experimental_data;NULL;NULL;NULL;NULL;15_11_2020_3_30_44
133;34;4;queryStructureCont;bars;7;2063;red;saddlebrown,purple,black,green,pink,white,red;120,210,300,390,480,570,660;150,180,210,240,270,300,330;32;7;6;12wz8v33a9awf4m;false;706.382;390;195;psychophysics;773064;experimental_data;NULL;NULL;NULL;NULL;15_11_2020_3_30_44
133;34;4;queryStructureCont;query;7;1718;red;saddlebrown,purple,black,green,pink,white,red;120,210,300,390,480,570,660;150,180,210,240,270,300,330;54;7;6;12wz8v33a9awf4m;false;708.798;390;195;psychophysics;775786;experimental_data;NULL;NULL;NULL;NULL;15_11_2020_3_30_44
134;26;4;queryStructureCont;bars;6;1510;saddlebrown;black,white,yellow,orange,red,saddlebrown;120,210,300,390,480,570;150,180,210,240,270,300;32;6;6;12wz8v33a9awf4m;true;714.188;390;195;psychophysics;779303;experimental_data;NULL;NULL;NULL;NULL;15_11_2020_3_30_44
134;26;4;queryStructureCont;query;6;1648;saddlebrown;black,white,yellow,orange,red,saddlebrown;120,210,300,390,480,570;150,180,210,240,270,300;54;6;6;12wz8v33a9awf4m;true;709.471;390;195;psychophysics;781956;experimental_data;NULL;NULL;NULL;NULL;15_11_2020_3_30_44
135;22;4;queryStructureCont;bars;5;1483;pink;white,green,black,red,pink;210,300,390,480,570;210,240,270,300,330;32;5;5;12wz8v33a9awf4m;true;69.444;390;195;psychophysics;785444;experimental_data;NULL;NULL;NULL;NULL;15_11_2020_3_30_44
135;22;4;queryStructureCont;query;5;1341;pink;white,green,black,red,pink;210,300,390,480,570;210,240,270,300,330;53;5;5;12wz8v33a9awf4m;true;713.019;390;195;psychophysics;787788;experimental_data;NULL;NULL;NULL;NULL;15_11_2020_3_30_44
136;14;4;queryStructureCont;bars;3;1244;blue;black,purple,blue;300,390,480;240,270,300;32;3;3;12wz8v33a9awf4m;true;706.269;390;195;psychophysics;791038;experimental_data;NULL;NULL;NULL;NULL;15_11_2020_3_30_44
136;14;4;queryStructureCont;query;3;666;blue;black,purple,blue;300,390,480;240,270,300;51;3;3;12wz8v33a9awf4m;true;724.634;390;195;psychophysics;792708;experimental_data;NULL;NULL;NULL;NULL;15_11_2020_3_30_44
137;18;4;queryStructureCont;bars;4;1185;purple;orange,green,white,purple;210,300,390,480;150,180,210,240;32;4;4;12wz8v33a9awf4m;true;711.181;390;195;psychophysics;795901;experimental_data;NULL;NULL;NULL;NULL;15_11_2020_3_30_44
137;18;4;queryStructureCont;query;4;589;purple;orange,green,white,purple;210,300,390,480;150,180,210,240;52;4;4;12wz8v33a9awf4m;true;720.116;390;195;psychophysics;797496;experimental_data;NULL;NULL;NULL;NULL;15_11_2020_3_30_44
138;4;4;queryStructureCont;bars;1;456;saddlebrown;saddlebrown;390;270;32;1;1;12wz8v33a9awf4m;true;694.565;390;195;psychophysics;799959;experimental_data;NULL;NULL;NULL;NULL;15_11_2020_3_30_44
138;4;4;queryStructureCont;query;1;364;saddlebrown;saddlebrown;390;270;49;1;1;12wz8v33a9awf4m;true;694.429;390;195;psychophysics;801326;experimental_data;NULL;NULL;NULL;NULL;15_11_2020_3_30_44
139;0;4;queryStructureCont;bars;1;393;black;black;390;210;32;1;1;12wz8v33a9awf4m;true;694.427;390;195;psychophysics;803725;experimental_data;NULL;NULL;NULL;NULL;15_11_2020_3_30_44
139;0;4;queryStructureCont;query;1;432;black;black;390;210;49;1;1;12wz8v33a9awf4m;true;717.452;390;195;psychophysics;805161;experimental_data;NULL;NULL;NULL;NULL;15_11_2020_3_30_44
140;2;4;queryStructureCont;bars;1;374;orange;orange;390;210;32;1;1;12wz8v33a9awf4m;true;707.783;390;195;psychophysics;807541;experimental_data;NULL;NULL;NULL;NULL;15_11_2020_3_30_44
140;2;4;queryStructureCont;query;1;280;orange;orange;390;210;49;1;1;12wz8v33a9awf4m;true;694.485;390;195;psychophysics;808827;experimental_data;NULL;NULL;NULL;NULL;15_11_2020_3_30_44
NULL;NULL;0;NULL;end_of_block;NULL;855;NULL;NULL;NULL;NULL;32;NULL;NULL;12wz8v33a9awf4m;NULL;NULL;NULL;NULL;html-keyboard-response;810686;experimental_data;810706;135.118;0.8;NULL;15_11_2020_3_30_44
141;9;5;queryStructureExp;bars;2;655;green;yellow,green;300,39;300,33;32;2;2;12wz8v33a9awf4m;true;71.759;390;195;psychophysics;812346;experimental_data;NULL;NULL;NULL;NULL;15_11_2020_3_30_44
141;9;5;queryStructureExp;query;2;363;green;yellow,green;300,39;300,33;50;2;2;12wz8v33a9awf4m;true;708.326;390;195;psychophysics;813714;experimental_data;NULL;NULL;NULL;NULL;15_11_2020_3_30_44
142;18;5;queryStructureExp;bars;4;575;orange;green,black,pink,orange;480,300,390,210;150,180,210,240;32;4;4;12wz8v33a9awf4m;true;70.299;390;195;psychophysics;816298;experimental_data;NULL;NULL;NULL;NULL;15_11_2020_3_30_44
142;18;5;queryStructureExp;query;4;1028;orange;green,black,pink,orange;480,300,390,210;150,180,210,240;52;4;4;12wz8v33a9awf4m;true;713.977;390;195;psychophysics;818332;experimental_data;NULL;NULL;NULL;NULL;15_11_2020_3_30_44
143;7;5;queryStructureExp;bars;2;515;green;orange,green;300,39;150,18;32;2;2;12wz8v33a9awf4m;true;723.753;390;195;psychophysics;820854;experimental_data;NULL;NULL;NULL;NULL;15_11_2020_3_30_44
143;7;5;queryStructureExp;query;2;648;green;orange,green;300,39;150,18;50;2;2;12wz8v33a9awf4m;true;71.764;390;195;psychophysics;822507;experimental_data;NULL;NULL;NULL;NULL;15_11_2020_3_30_44
144;13;5;queryStructureExp;bars;3;712;orange;green,black,orange;300,390,480;240,270,300;32;3;3;12wz8v33a9awf4m;true;701.415;390;195;psychophysics;825224;experimental_data;NULL;NULL;NULL;NULL;15_11_2020_3_30_44
144;13;5;queryStructureExp;query;3;716;orange;green,black,orange;300,390,480;240,270,300;51;3;3;12wz8v33a9awf4m;true;694.482;390;195;psychophysics;826946;experimental_data;NULL;NULL;NULL;NULL;15_11_2020_3_30_44
145;14;5;queryStructureExp;bars;3;649;saddlebrown;white,red,saddlebrown;300,390,480;240,270,300;32;3;3;12wz8v33a9awf4m;true;701.989;390;195;psychophysics;829602;experimental_data;NULL;NULL;NULL;NULL;15_11_2020_3_30_44
145;14;5;queryStructureExp;query;3;604;saddlebrown;white,red,saddlebrown;300,390,480;240,270,300;51;3;3;12wz8v33a9awf4m;true;694.433;390;195;psychophysics;831211;experimental_data;NULL;NULL;NULL;NULL;15_11_2020_3_30_44
146;26;5;queryStructureExp;bars;6;3802;green;yellow,orange,blue,black,red,green;480,120,570,210,300,390;150,180,210,240,270,300;32;6;4;12wz8v33a9awf4m;false;708.694;390;195;psychophysics;837021;experimental_data;NULL;NULL;NULL;NULL;15_11_2020_3_30_44
146;26;5;queryStructureExp;query;6;1879;green;yellow,orange,blue,black,red,green;480,120,570,210,300,390;150,180,210,240,270,300;52;6;4;12wz8v33a9awf4m;false;697.032;390;195;psychophysics;839904;experimental_data;NULL;NULL;NULL;NULL;15_11_2020_3_30_44
147;19;5;queryStructureExp;bars;4;1139;black;pink,red,blue,black;210,300,390,480;240,270,300,330;32;4;4;12wz8v33a9awf4m;true;725.613;390;195;psychophysics;843051;experimental_data;NULL;NULL;NULL;NULL;15_11_2020_3_30_44
147;19;5;queryStructureExp;query;4;683;black;pink,red,blue,black;210,300,390,480;240,270,300,330;52;4;4;12wz8v33a9awf4m;true;716.346;390;195;psychophysics;844739;experimental_data;NULL;NULL;NULL;NULL;15_11_2020_3_30_44
148;32;5;queryStructureExp;bars;7;2235;green;black,blue,saddlebrown,orange,purple,red,green;210,300,480,120,390,660,570;150,180,210,240,270,300,330;32;7;5;12wz8v33a9awf4m;false;721.312;390;195;psychophysics;848980;experimental_data;NULL;NULL;NULL;NULL;15_11_2020_3_30_44
148;32;5;queryStructureExp;query;7;1458;green;black,blue,saddlebrown,orange,purple,red,green;210,300,480,120,390,660,570;150,180,210,240,270,300,330;53;7;5;12wz8v33a9awf4m;false;697.783;390;195;psychophysics;851442;experimental_data;NULL;NULL;NULL;NULL;15_11_2020_3_30_44
149;12;5;queryStructureExp;bars;3;1342;blue;saddlebrown,black,blue;300,480,390;180,210,240;32;3;3;12wz8v33a9awf4m;true;701.762;390;195;psychophysics;854792;experimental_data;NULL;NULL;NULL;NULL;15_11_2020_3_30_44
149;12;5;queryStructureExp;query;3;1006;blue;saddlebrown,black,blue;300,480,390;180,210,240;51;3;3;12wz8v33a9awf4m;true;699.289;390;195;psychophysics;856803;experimental_data;NULL;NULL;NULL;NULL;15_11_2020_3_30_44
150;11;5;queryStructureExp;bars;3;900;blue;red,yellow,blue;300,480,390;180,210,240;32;3;3;12wz8v33a9awf4m;true;69.982;390;195;psychophysics;859723;experimental_data;NULL;NULL;NULL;NULL;15_11_2020_3_30_44
150;11;5;queryStructureExp;query;3;729;blue;red,yellow,blue;300,480,390;180,210,240;51;3;3;12wz8v33a9awf4m;true;701.184;390;195;psychophysics;861456;experimental_data;NULL;NULL;NULL;NULL;15_11_2020_3_30_44
151;4;5;queryStructureExp;bars;1;489;blue;blue;390;270;32;1;1;12wz8v33a9awf4m;true;704.631;390;195;psychophysics;863951;experimental_data;NULL;NULL;NULL;NULL;15_11_2020_3_30_44
151;4;5;queryStructureExp;query;1;404;blue;blue;390;270;49;1;1;12wz8v33a9awf4m;true;706.898;390;195;psychophysics;865359;experimental_data;NULL;NULL;NULL;NULL;15_11_2020_3_30_44
152;15;5;queryStructureExp;bars;4;1312;red;blue,white,pink,red;210,390,480,300;150,180,210,240;32;4;4;12wz8v33a9awf4m;true;725.306;390;195;psychophysics;868677;experimental_data;NULL;NULL;NULL;NULL;15_11_2020_3_30_44
152;15;5;queryStructureExp;query;4;1073;red;blue,white,pink,red;210,390,480,300;150,180,210,240;52;4;4;12wz8v33a9awf4m;true;694.449;390;195;psychophysics;870754;experimental_data;NULL;NULL;NULL;NULL;15_11_2020_3_30_44
153;8;5;queryStructureExp;bars;2;917;yellow;black,yellow;300,39;240,27;32;2;2;12wz8v33a9awf4m;true;721.998;390;195;psychophysics;873676;experimental_data;NULL;NULL;NULL;NULL;15_11_2020_3_30_44
153;8;5;queryStructureExp;query;2;527;yellow;black,yellow;300,39;240,27;50;2;2;12wz8v33a9awf4m;true;694.422;390;195;psychophysics;875208;experimental_data;NULL;NULL;NULL;NULL;15_11_2020_3_30_44
154;2;5;queryStructureExp;bars;1;493;black;black;390;210;32;1;1;12wz8v33a9awf4m;true;714.623;390;195;psychophysics;877708;experimental_data;NULL;NULL;NULL;NULL;15_11_2020_3_30_44
154;2;5;queryStructureExp;query;1;285;black;black;390;210;49;1;1;12wz8v33a9awf4m;true;731.032;390;195;psychophysics;878997;experimental_data;NULL;NULL;NULL;NULL;15_11_2020_3_30_44
155;1;5;queryStructureExp;bars;1;398;yellow;yellow;390;210;32;1;2;12wz8v33a9awf4m;false;694.382;390;195;psychophysics;881403;experimental_data;NULL;NULL;NULL;NULL;15_11_2020_3_30_44
155;1;5;queryStructureExp;query;1;455;yellow;yellow;390;210;50;1;2;12wz8v33a9awf4m;false;694.375;390;195;psychophysics;882862;experimental_data;NULL;NULL;NULL;NULL;15_11_2020_3_30_44
156;20;5;queryStructureExp;bars;5;2405;green;pink,white,purple,black,green;210,570,300,390,480;150,180,210,240,270;32;5;5;12wz8v33a9awf4m;true;702.548;390;195;psychophysics;887276;experimental_data;NULL;NULL;NULL;NULL;15_11_2020_3_30_44
156;20;5;queryStructureExp;query;5;1178;green;pink,white,purple,black,green;210,570,300,390,480;150,180,210,240,270;53;5;5;12wz8v33a9awf4m;true;698.609;390;195;psychophysics;889459;experimental_data;NULL;NULL;NULL;NULL;15_11_2020_3_30_44
157;33;5;queryStructureExp;bars;7;2295;pink;black,white,yellow,orange,red,blue,pink;660,300,390,570,210,480,120;150,180,210,240,270,300,330;32;7;-16;12wz8v33a9awf4m;invalid response;707.302;390;195;psychophysics;893761;experimental_data;NULL;NULL;NULL;NULL;15_11_2020_3_30_44
157;33;5;queryStructureExp;query;7;755;pink;black,white,yellow,orange,red,blue,pink;660,300,390,570,210,480,120;150,180,210,240,270,300,330;32;7;-16;12wz8v33a9awf4m;invalid response;707.429;390;195;psychophysics;895520;experimental_data;NULL;NULL;NULL;NULL;15_11_2020_3_30_44
158;28;5;queryStructureExp;bars;6;2656;orange;saddlebrown,pink,green,black,blue,orange;390,480,210,300,570,120;150,180,210,240,270,300;32;6;1;12wz8v33a9awf4m;false;705.529;390;195;psychophysics;904185;experimental_data;NULL;NULL;NULL;NULL;15_11_2020_3_30_44
158;28;5;queryStructureExp;query;6;1367;orange;saddlebrown,pink,green,black,blue,orange;390,480,210,300,570,120;150,180,210,240,270,300;49;6;1;12wz8v33a9awf4m;false;708.844;390;195;psychophysics;906556;experimental_data;NULL;NULL;NULL;NULL;15_11_2020_3_30_44
159;29;5;queryStructureExp;bars;6;2431;orange;purple,black,green,white,yellow,orange;300,390,570,120,480,210;150,180,210,240,270,300;32;6;6;12wz8v33a9awf4m;true;704.538;390;195;psychophysics;910993;experimental_data;NULL;NULL;NULL;NULL;15_11_2020_3_30_44
159;29;5;queryStructureExp;query;6;1436;orange;purple,black,green,white,yellow,orange;300,390,570,120,480,210;150,180,210,240,270,300;54;6;6;12wz8v33a9awf4m;true;715.292;390;195;psychophysics;913434;experimental_data;NULL;NULL;NULL;NULL;15_11_2020_3_30_44
160;5;5;queryStructureExp;bars;2;677;blue;purple,blue;300,39;240,27;32;2;2;12wz8v33a9awf4m;true;701.757;390;195;psychophysics;916118;experimental_data;NULL;NULL;NULL;NULL;15_11_2020_3_30_44
160;5;5;queryStructureExp;query;2;594;blue;purple,blue;300,39;240,27;50;2;2;12wz8v33a9awf4m;true;694.446;390;195;psychophysics;917718;experimental_data;NULL;NULL;NULL;NULL;15_11_2020_3_30_44
161;10;5;queryStructureExp;bars;3;644;saddlebrown;purple,yellow,saddlebrown;300,480,390;180,210,240;32;3;3;12wz8v33a9awf4m;true;717.822;390;195;psychophysics;920370;experimental_data;NULL;NULL;NULL;NULL;15_11_2020_3_30_44
161;10;5;queryStructureExp;query;3;520;saddlebrown;purple,yellow,saddlebrown;300,480,390;180,210,240;51;3;3;12wz8v33a9awf4m;true;713.728;390;195;psychophysics;921893;experimental_data;NULL;NULL;NULL;NULL;15_11_2020_3_30_44
162;22;5;queryStructureExp;bars;5;2257;white;orange,purple,yellow,green,white;570,390,300,210,480;210,240,270,300,330;32;5;5;12wz8v33a9awf4m;true;705.324;390;195;psychophysics;926158;experimental_data;NULL;NULL;NULL;NULL;15_11_2020_3_30_44
162;22;5;queryStructureExp;query;5;1235;white;orange,purple,yellow,green,white;570,390,300,210,480;210,240,270,300,330;53;5;5;12wz8v33a9awf4m;true;706.409;390;195;psychophysics;928398;experimental_data;NULL;NULL;NULL;NULL;15_11_2020_3_30_44
163;25;5;queryStructureExp;bars;6;2700;orange;yellow,blue,white,purple,black,orange;390,570,480,210,120,300;180,210,240,270,300,330;32;6;4;12wz8v33a9awf4m;false;701.658;390;195;psychophysics;933105;experimental_data;NULL;NULL;NULL;NULL;15_11_2020_3_30_44
163;25;5;queryStructureExp;query;6;1312;orange;yellow,blue,white,purple,black,orange;390,570,480,210,120,300;180,210,240,270,300,330;52;6;4;12wz8v33a9awf4m;false;713.409;390;195;psychophysics;935422;experimental_data;NULL;NULL;NULL;NULL;15_11_2020_3_30_44
164;0;5;queryStructureExp;bars;1;510;orange;orange;390;210;32;1;1;12wz8v33a9awf4m;true;694.403;390;195;psychophysics;937937;experimental_data;NULL;NULL;NULL;NULL;15_11_2020_3_30_44
164;0;5;queryStructureExp;query;1;301;orange;orange;390;210;49;1;1;12wz8v33a9awf4m;true;694.536;390;195;psychophysics;939243;experimental_data;NULL;NULL;NULL;NULL;15_11_2020_3_30_44
165;17;5;queryStructureExp;bars;4;1523;blue;yellow,green,red,blue;210,300,480,390;210,240,270,300;32;4;4;12wz8v33a9awf4m;true;707.378;390;195;psychophysics;942771;experimental_data;NULL;NULL;NULL;NULL;15_11_2020_3_30_44
165;17;5;queryStructureExp;query;4;483;blue;yellow,green,red,blue;210,300,480,390;210,240,270,300;52;4;4;12wz8v33a9awf4m;true;704.657;390;195;psychophysics;944259;experimental_data;NULL;NULL;NULL;NULL;15_11_2020_3_30_44
166;24;5;queryStructureExp;bars;5;414;blue;yellow,purple,white,green,blue;390,300,210,480,570;180,210,240,270,300;32;5;5;12wz8v33a9awf4m;true;694.392;390;195;psychophysics;946679;experimental_data;NULL;NULL;NULL;NULL;15_11_2020_3_30_44
166;24;5;queryStructureExp;query;5;1659;blue;yellow,purple,white,green,blue;390,300,210,480,570;180,210,240,270,300;53;5;5;12wz8v33a9awf4m;true;71.849;390;195;psychophysics;949342;experimental_data;NULL;NULL;NULL;NULL;15_11_2020_3_30_44
