Trial_index;TrialID;Block;Conditions;Stimulus_type;Number_of_Bars;rt;Query_color;color_sequence;position_sequence;heights;key_press;Correct_Position;response_position;subject_id;correct;avg_frame_time;center_x;center_y;trial_type;time_elapsed;TrialType;timeMs;timeMin;score;reward;date
1;2;1;noStructureExp;bars;3;9901;red;orange,red,purple;300,390,480;150,180,210;32;2;5;dcfu2a5evahms72;false;166.657;390;195;psychophysics;242296;practice_trials;NULL;NULL;NULL;NULL;12_11_2020_15_49_27
1;2;1;noStructureExp;query;3;4590;red;orange,red,purple;300,390,480;150,180,210;53;2;5;dcfu2a5evahms72;false;167.286;390;195;psychophysics;247893;practice_trial;NULL;NULL;NULL;NULL;12_11_2020_15_49_27
2;1;1;noStructureExp;bars;2;11501;orange;orange,black;300,39;300,33;32;1;4;dcfu2a5evahms72;false;166.662;390;195;psychophysics;261406;practice_trials;NULL;NULL;NULL;NULL;12_11_2020_15_49_27
2;1;1;noStructureExp;query;2;1558;orange;orange,black;300,39;300,33;52;1;4;dcfu2a5evahms72;false;166.641;390;195;psychophysics;263973;practice_trial;NULL;NULL;NULL;NULL;12_11_2020_15_49_27
3;6;1;noStructureExp;bars;7;14006;green;blue,pink,green,orange,saddlebrown,red,yellow;390,660,300,210,570,480,120;150,180,210,240,270,300,330;32;3;3;dcfu2a5evahms72;true;166.654;390;195;psychophysics;279989;practice_trials;NULL;NULL;NULL;NULL;12_11_2020_15_49_27
3;6;1;noStructureExp;query;7;2438;green;blue,pink,green,orange,saddlebrown,red,yellow;390,660,300,210,570,480,120;150,180,210,240,270,300,330;51;3;3;dcfu2a5evahms72;true;166.625;390;195;psychophysics;283437;practice_trial;NULL;NULL;NULL;NULL;12_11_2020_15_49_27
4;3;1;noStructureExp;bars;4;1293;blue;blue,black,red,yellow;390,300,210,480;240,270,300,330;32;1;7;dcfu2a5evahms72;false;166.704;390;195;psychophysics;286742;practice_trials;NULL;NULL;NULL;NULL;12_11_2020_15_49_27
4;3;1;noStructureExp;query;4;3034;blue;blue,black,red,yellow;390,300,210,480;240,270,300,330;55;1;7;dcfu2a5evahms72;false;166.673;390;195;psychophysics;290781;practice_trial;NULL;NULL;NULL;NULL;12_11_2020_15_49_27
5;5;1;noStructureExp;bars;6;1749;pink;saddlebrown,black,blue,red,purple,pink;480,300,210,120,570,390;180,210,240,270,300,330;32;6;3;dcfu2a5evahms72;false;166.617;390;195;psychophysics;294537;practice_trials;NULL;NULL;NULL;NULL;12_11_2020_15_49_27
5;5;1;noStructureExp;query;6;2331;pink;saddlebrown,black,blue,red,purple,pink;480,300,210,120,570,390;180,210,240,270,300,330;51;6;3;dcfu2a5evahms72;false;166.665;390;195;psychophysics;297878;practice_trial;NULL;NULL;NULL;NULL;12_11_2020_15_49_27
6;0;1;noStructureExp;bars;1;2632;red;red;390;180;32;1;5;dcfu2a5evahms72;false;166.622;390;195;psychophysics;302549;practice_trials;NULL;NULL;NULL;NULL;12_11_2020_15_49_27
6;0;1;noStructureExp;query;1;2590;red;red;390;180;53;1;5;dcfu2a5evahms72;false;166.676;390;195;psychophysics;306144;practice_trial;NULL;NULL;NULL;NULL;12_11_2020_15_49_27
7;4;1;noStructureExp;bars;5;14533;green;saddlebrown,green,yellow,black,blue;210,390,300,480,570;210,240,270,300,330;32;2;4;dcfu2a5evahms72;false;166.653;390;195;psychophysics;322686;practice_trials;NULL;NULL;NULL;NULL;12_11_2020_15_49_27
7;4;1;noStructureExp;query;5;1907;green;saddlebrown,green,yellow,black,blue;210,390,300,480,570;210,240,270,300,330;52;2;4;dcfu2a5evahms72;false;166.642;390;195;psychophysics;325598;practice_trial;NULL;NULL;NULL;NULL;12_11_2020_15_49_27
8;0;2;noStructureCont;bars;1;4647;orange;orange;390;180;32;1;4;dcfu2a5evahms72;false;166.653;390;195;psychophysics;341142;practice_trials;NULL;NULL;NULL;NULL;12_11_2020_15_49_27
8;0;2;noStructureCont;query;1;665;orange;orange;390;180;52;1;4;dcfu2a5evahms72;false;166.779;390;195;psychophysics;342813;practice_trial;NULL;NULL;NULL;NULL;12_11_2020_15_49_27
9;2;2;noStructureCont;bars;3;4434;orange;purple,orange,yellow;300,390,480;150,180,210;32;2;4;dcfu2a5evahms72;false;166.668;390;195;psychophysics;349253;practice_trials;NULL;NULL;NULL;NULL;12_11_2020_15_49_27
9;2;2;noStructureCont;query;3;1920;orange;purple,orange,yellow;300,390,480;150,180,210;52;2;4;dcfu2a5evahms72;false;166.651;390;195;psychophysics;352181;practice_trial;NULL;NULL;NULL;NULL;12_11_2020_15_49_27
10;4;2;noStructureCont;bars;5;861;red;white,red,green,pink,black;210,300,390,480,570;210,240,270,300,330;32;2;5;dcfu2a5evahms72;false;166.534;390;195;psychophysics;355053;practice_trials;NULL;NULL;NULL;NULL;12_11_2020_15_49_27
10;4;2;noStructureCont;query;5;1505;red;white,red,green,pink,black;210,300,390,480,570;210,240,270,300,330;53;2;5;dcfu2a5evahms72;false;166.604;390;195;psychophysics;357565;practice_trial;NULL;NULL;NULL;NULL;12_11_2020_15_49_27
11;5;2;noStructureCont;bars;6;14815;orange;pink,red,purple,black,yellow,orange;120,210,300,390,480,570;180,210,240,270,300,330;32;6;6;dcfu2a5evahms72;true;166.657;390;195;psychophysics;374390;practice_trials;NULL;NULL;NULL;NULL;12_11_2020_15_49_27
11;5;2;noStructureCont;query;6;3810;orange;pink,red,purple,black,yellow,orange;120,210,300,390,480,570;180,210,240,270,300,330;54;6;6;dcfu2a5evahms72;true;166.668;390;195;psychophysics;379206;practice_trial;NULL;NULL;NULL;NULL;12_11_2020_15_49_27
12;3;2;noStructureCont;bars;4;3568;purple;purple,yellow,blue,white;210,300,390,480;240,270,300,330;32;1;1;dcfu2a5evahms72;true;166.668;390;195;psychophysics;384782;practice_trials;NULL;NULL;NULL;NULL;12_11_2020_15_49_27
12;3;2;noStructureCont;query;4;1248;purple;purple,yellow,blue,white;210,300,390,480;240,270,300,330;49;1;1;dcfu2a5evahms72;true;166.568;390;195;psychophysics;387036;practice_trial;NULL;NULL;NULL;NULL;12_11_2020_15_49_27
13;1;2;noStructureCont;bars;2;1840;blue;blue,green;300,39;300,33;32;1;1;dcfu2a5evahms72;true;166.617;390;195;psychophysics;390886;practice_trials;NULL;NULL;NULL;NULL;12_11_2020_15_49_27
13;1;2;noStructureCont;query;2;1104;blue;blue,green;300,39;300,33;49;1;1;dcfu2a5evahms72;true;166.691;390;195;psychophysics;392997;practice_trial;NULL;NULL;NULL;NULL;12_11_2020_15_49_27
14;6;2;noStructureCont;bars;7;19516;orange;saddlebrown,black,orange,purple,red,pink,yellow;120,210,300,390,480,570,660;150,180,210,240,270,300,330;32;3;3;dcfu2a5evahms72;true;166.655;390;195;psychophysics;414525;practice_trials;NULL;NULL;NULL;NULL;12_11_2020_15_49_27
14;6;2;noStructureCont;query;7;4082;orange;saddlebrown,black,orange,purple,red,pink,yellow;120,210,300,390,480,570,660;150,180,210,240,270,300,330;51;3;3;dcfu2a5evahms72;true;16.665;390;195;psychophysics;419613;practice_trial;NULL;NULL;NULL;NULL;12_11_2020_15_49_27
NULL;NULL;NULL;NULL;end_of_practice;NULL;8540;NULL;NULL;NULL;NULL;32;NULL;NULL;dcfu2a5evahms72;NULL;NULL;NULL;NULL;html-keyboard-response;429157;practice_trials;429169;715.282;0.357143;NULL;12_11_2020_15_49_27
1;6;1;noStructureExp;bars;7;14504;white;purple,pink,green,blue,yellow,white,black;660,210,480,300,570,120,390;150,180,210,240,270,300,330;32;6;5;5zhvm0u1vxll0kd;false;166.854;390;195;psychophysics;294012;practice_trials;NULL;NULL;NULL;NULL;12_11_2020_15_50_39
1;6;1;noStructureExp;query;7;1725;white;purple,pink,green,blue,yellow,white,black;660,210,480,300,570,120,390;150,180,210,240,270,300,330;53;6;5;5zhvm0u1vxll0kd;false;168.308;390;195;psychophysics;296746;practice_trial;NULL;NULL;NULL;NULL;12_11_2020_15_50_39
2;3;1;noStructureExp;bars;4;4123;saddlebrown;pink,black,blue,saddlebrown;480,300,390,210;180,210,240,270;32;4;4;5zhvm0u1vxll0kd;true;166.663;390;195;psychophysics;302881;practice_trials;NULL;NULL;NULL;NULL;12_11_2020_15_50_39
2;3;1;noStructureExp;query;4;1632;saddlebrown;pink,black,blue,saddlebrown;480,300,390,210;180,210,240,270;52;4;4;5zhvm0u1vxll0kd;true;166.675;390;195;psychophysics;305520;practice_trial;NULL;NULL;NULL;NULL;12_11_2020_15_50_39
3;2;1;noStructureExp;bars;3;3667;pink;red,pink,black;300,480,390;210,240,270;32;2;1;5zhvm0u1vxll0kd;false;166.665;390;195;psychophysics;311200;practice_trials;NULL;NULL;NULL;NULL;12_11_2020_15_50_39
3;2;1;noStructureExp;query;3;2082;pink;red,pink,black;300,480,390;210,240,270;49;2;1;5zhvm0u1vxll0kd;false;166.655;390;195;psychophysics;314291;practice_trial;NULL;NULL;NULL;NULL;12_11_2020_15_50_39
4;5;1;noStructureExp;bars;6;1827;green;green,pink,orange,purple,yellow,red;390,300,210,480,570,120;180,210,240,270,300,330;32;1;3;5zhvm0u1vxll0kd;false;166.665;390;195;psychophysics;318130;practice_trials;NULL;NULL;NULL;NULL;12_11_2020_15_50_39
4;5;1;noStructureExp;query;6;3060;green;green,pink,orange,purple,yellow,red;390,300,210,480,570,120;180,210,240,270,300,330;51;1;3;5zhvm0u1vxll0kd;false;166.666;390;195;psychophysics;322195;practice_trial;NULL;NULL;NULL;NULL;12_11_2020_15_50_39
5;4;1;noStructureExp;bars;5;9359;black;orange,yellow,blue,black,purple;480,210,300,390,570;210,240,270,300,330;32;4;2;5zhvm0u1vxll0kd;false;166.661;390;195;psychophysics;333564;practice_trials;NULL;NULL;NULL;NULL;12_11_2020_15_50_39
5;4;1;noStructureExp;query;5;1303;black;orange,yellow,blue,black,purple;480,210,300,390,570;210,240,270,300,330;50;4;2;5zhvm0u1vxll0kd;false;166.673;390;195;psychophysics;335873;practice_trial;NULL;NULL;NULL;NULL;12_11_2020_15_50_39
6;1;1;noStructureExp;bars;2;5975;purple;purple,pink;300,39;300,33;32;1;1;5zhvm0u1vxll0kd;true;166.665;390;195;psychophysics;343857;practice_trials;NULL;NULL;NULL;NULL;12_11_2020_15_50_39
6;1;1;noStructureExp;query;2;1333;purple;purple,pink;300,39;300,33;49;1;1;5zhvm0u1vxll0kd;true;166.663;390;195;psychophysics;346200;practice_trial;NULL;NULL;NULL;NULL;12_11_2020_15_50_39
7;0;1;noStructureExp;bars;1;2387;white;white;390;330;32;1;5;5zhvm0u1vxll0kd;false;166.664;390;195;psychophysics;350592;practice_trials;NULL;NULL;NULL;NULL;12_11_2020_15_50_39
7;0;1;noStructureExp;query;1;955;white;white;390;330;53;1;5;5zhvm0u1vxll0kd;false;166.664;390;195;psychophysics;352552;practice_trial;NULL;NULL;NULL;NULL;12_11_2020_15_50_39
8;6;2;noStructureCont;bars;7;5866;saddlebrown;yellow,purple,green,white,black,saddlebrown,red;120,210,300,390,480,570,660;150,180,210,240,270,300,330;32;6;4;5zhvm0u1vxll0kd;false;167.136;390;195;psychophysics;367416;practice_trials;NULL;NULL;NULL;NULL;12_11_2020_15_50_39
8;6;2;noStructureCont;query;7;2811;saddlebrown;yellow,purple,green,white,black,saddlebrown,red;120,210,300,390,480,570,660;150,180,210,240,270,300,330;52;6;4;5zhvm0u1vxll0kd;false;166.661;390;195;psychophysics;371234;practice_trial;NULL;NULL;NULL;NULL;12_11_2020_15_50_39
9;5;2;noStructureCont;bars;6;1768;black;black,white,purple,blue,yellow,orange;120,210,300,390,480,570;180,210,240,270,300,330;32;1;2;5zhvm0u1vxll0kd;false;166.673;390;195;psychophysics;375019;practice_trials;NULL;NULL;NULL;NULL;12_11_2020_15_50_39
9;5;2;noStructureCont;query;6;1312;black;black,white,purple,blue,yellow,orange;120,210,300,390,480,570;180,210,240,270,300,330;50;1;2;5zhvm0u1vxll0kd;false;166.637;390;195;psychophysics;377353;practice_trial;NULL;NULL;NULL;NULL;12_11_2020_15_50_39
10;4;2;noStructureCont;bars;5;1505;black;yellow,red,white,black,saddlebrown;210,300,390,480,570;210,240,270,300,330;32;4;2;5zhvm0u1vxll0kd;false;166.663;390;195;psychophysics;380873;practice_trials;NULL;NULL;NULL;NULL;12_11_2020_15_50_39
10;4;2;noStructureCont;query;5;1268;black;yellow,red,white,black,saddlebrown;210,300,390,480,570;210,240,270,300,330;50;4;2;5zhvm0u1vxll0kd;false;166.672;390;195;psychophysics;383148;practice_trial;NULL;NULL;NULL;NULL;12_11_2020_15_50_39
11;0;2;noStructureCont;bars;1;3659;saddlebrown;saddlebrown;390;330;32;1;4;5zhvm0u1vxll0kd;false;166.665;390;195;psychophysics;388817;practice_trials;NULL;NULL;NULL;NULL;12_11_2020_15_50_39
11;0;2;noStructureCont;query;1;1290;saddlebrown;saddlebrown;390;330;52;1;4;5zhvm0u1vxll0kd;false;16.667;390;195;psychophysics;391114;practice_trial;NULL;NULL;NULL;NULL;12_11_2020_15_50_39
12;3;2;noStructureCont;bars;4;97459;saddlebrown;green,red,orange,saddlebrown;210,300,390,480;180,210,240,270;32;4;4;5zhvm0u1vxll0kd;true;16.672;390;195;psychophysics;490584;practice_trials;NULL;NULL;NULL;NULL;12_11_2020_15_50_39
12;3;2;noStructureCont;query;4;4743;saddlebrown;green,red,orange,saddlebrown;210,300,390,480;180,210,240,270;52;4;4;5zhvm0u1vxll0kd;true;167.847;390;195;psychophysics;496338;practice_trial;NULL;NULL;NULL;NULL;12_11_2020_15_50_39
13;1;2;noStructureCont;bars;2;6806;blue;blue,orange;300,39;300,33;32;1;1;5zhvm0u1vxll0kd;true;166.665;390;195;psychophysics;505154;practice_trials;NULL;NULL;NULL;NULL;12_11_2020_15_50_39
13;1;2;noStructureCont;query;2;1287;blue;blue,orange;300,39;300,33;49;1;1;5zhvm0u1vxll0kd;true;166.645;390;195;psychophysics;507449;practice_trial;NULL;NULL;NULL;NULL;12_11_2020_15_50_39
14;2;2;noStructureCont;bars;3;4961;yellow;pink,yellow,blue;300,390,480;210,240,270;32;2;2;5zhvm0u1vxll0kd;true;166.663;390;195;psychophysics;514433;practice_trials;NULL;NULL;NULL;NULL;12_11_2020_15_50_39
14;2;2;noStructureCont;query;3;1946;yellow;pink,yellow,blue;300,390,480;210,240,270;50;2;2;5zhvm0u1vxll0kd;true;166.664;390;195;psychophysics;517385;practice_trial;NULL;NULL;NULL;NULL;12_11_2020_15_50_39
NULL;NULL;NULL;NULL;end_of_practice;NULL;13331;NULL;NULL;NULL;NULL;32;NULL;NULL;5zhvm0u1vxll0kd;NULL;NULL;NULL;NULL;html-keyboard-response;531722;practice_trials;531729;886.215;0.357143;NULL;12_11_2020_15_50_39
1;3;1;noStructureExp;bars;4;9263;orange;orange,purple,black,blue;210,300,390,480;210,240,270,300;32;1;1;6uxj0y0bq40ezqx;true;166.654;390;195;psychophysics;416132;practice_trials;NULL;NULL;NULL;NULL;12_11_2020_15_52_59
1;3;1;noStructureExp;query;4;1297;orange;orange,purple,black,blue;210,300,390,480;210,240,270,300;49;1;1;6uxj0y0bq40ezqx;true;166.702;390;195;psychophysics;418439;practice_trial;NULL;NULL;NULL;NULL;12_11_2020_15_52_59
2;0;1;noStructureExp;bars;1;3509;blue;blue;390;210;32;1;4;6uxj0y0bq40ezqx;false;166.644;390;195;psychophysics;423960;practice_trials;NULL;NULL;NULL;NULL;12_11_2020_15_52_59
2;0;1;noStructureExp;query;1;1023;blue;blue;390;210;52;1;4;6uxj0y0bq40ezqx;false;166.627;390;195;psychophysics;425991;practice_trial;NULL;NULL;NULL;NULL;12_11_2020_15_52_59
3;5;1;noStructureExp;bars;6;6782;yellow;white,purple,yellow,black,orange,blue;480,120,300,210,570,390;180,210,240,270,300,330;32;3;3;6uxj0y0bq40ezqx;true;169.154;390;195;psychophysics;434783;practice_trials;NULL;NULL;NULL;NULL;12_11_2020_15_52_59
3;5;1;noStructureExp;query;6;5202;yellow;white,purple,yellow,black,orange,blue;480,120,300,210,570,390;180,210,240,270,300,330;51;3;3;6uxj0y0bq40ezqx;true;166.653;390;195;psychophysics;440999;practice_trial;NULL;NULL;NULL;NULL;12_11_2020_15_52_59
4;1;1;noStructureExp;bars;2;9737;yellow;purple,yellow;300,39;210,24;32;2;2;6uxj0y0bq40ezqx;true;166.655;390;195;psychophysics;452752;practice_trials;NULL;NULL;NULL;NULL;12_11_2020_15_52_59
4;1;1;noStructureExp;query;2;1157;yellow;purple,yellow;300,39;210,24;50;2;2;6uxj0y0bq40ezqx;true;166.676;390;195;psychophysics;454919;practice_trial;NULL;NULL;NULL;NULL;12_11_2020_15_52_59
5;6;1;noStructureExp;bars;7;9382;red;red,black,white,pink,purple,saddlebrown,orange;480,120,210,390,300,660,570;150,180,210,240,270,300,330;32;1;1;6uxj0y0bq40ezqx;true;167.554;390;195;psychophysics;466311;practice_trials;NULL;NULL;NULL;NULL;12_11_2020_15_52_59
5;6;1;noStructureExp;query;7;1594;red;red,black,white,pink,purple,saddlebrown,orange;480,120,210,390,300,660,570;150,180,210,240,270,300,330;49;1;1;6uxj0y0bq40ezqx;true;166.673;390;195;psychophysics;468911;practice_trial;NULL;NULL;NULL;NULL;12_11_2020_15_52_59
6;2;1;noStructureExp;bars;3;3173;saddlebrown;saddlebrown,green,yellow;480,300,390;150,180,210;32;1;1;6uxj0y0bq40ezqx;true;166.633;390;195;psychophysics;474094;practice_trials;NULL;NULL;NULL;NULL;12_11_2020_15_52_59
6;2;1;noStructureExp;query;3;970;saddlebrown;saddlebrown,green,yellow;480,300,390;150,180,210;49;1;1;6uxj0y0bq40ezqx;true;166.687;390;195;psychophysics;476070;practice_trial;NULL;NULL;NULL;NULL;12_11_2020_15_52_59
7;4;1;noStructureExp;bars;5;7929;saddlebrown;orange,black,red,saddlebrown,blue;480,300,390,570,210;150,180,210,240,270;32;4;4;6uxj0y0bq40ezqx;true;168.784;390;195;psychophysics;486009;practice_trials;NULL;NULL;NULL;NULL;12_11_2020_15_52_59
7;4;1;noStructureExp;query;5;4575;saddlebrown;orange,black,red,saddlebrown,blue;480,300,390,570,210;150,180,210,240,270;52;4;4;6uxj0y0bq40ezqx;true;166.661;390;195;psychophysics;491592;practice_trial;NULL;NULL;NULL;NULL;12_11_2020_15_52_59
8;4;2;noStructureCont;bars;5;5884;pink;white,black,red,pink,green;210,300,390,480,570;150,180,210,240,270;32;4;4;6uxj0y0bq40ezqx;true;166.665;390;195;psychophysics;503695;practice_trials;NULL;NULL;NULL;NULL;12_11_2020_15_52_59
8;4;2;noStructureCont;query;5;3763;pink;white,black,red,pink,green;210,300,390,480,570;150,180,210,240,270;52;4;4;6uxj0y0bq40ezqx;true;167.392;390;195;psychophysics;508464;practice_trial;NULL;NULL;NULL;NULL;12_11_2020_15_52_59
9;0;2;noStructureCont;bars;1;1778;pink;pink;390;210;32;1;4;6uxj0y0bq40ezqx;false;166.637;390;195;psychophysics;512256;practice_trials;NULL;NULL;NULL;NULL;12_11_2020_15_52_59
9;0;2;noStructureCont;query;1;1352;pink;pink;390;210;52;1;4;6uxj0y0bq40ezqx;false;166.645;390;195;psychophysics;514615;practice_trial;NULL;NULL;NULL;NULL;12_11_2020_15_52_59
10;5;2;noStructureCont;bars;6;5697;black;white,blue,black,red,saddlebrown,orange;120,210,300,390,480,570;180,210,240,270,300,330;32;3;3;6uxj0y0bq40ezqx;true;167.634;390;195;psychophysics;522323;practice_trials;NULL;NULL;NULL;NULL;12_11_2020_15_52_59
10;5;2;noStructureCont;query;6;3484;black;white,blue,black,red,saddlebrown,orange;120,210,300,390,480,570;180,210,240,270,300,330;51;3;3;6uxj0y0bq40ezqx;true;166.643;390;195;psychophysics;526815;practice_trial;NULL;NULL;NULL;NULL;12_11_2020_15_52_59
11;2;2;noStructureCont;bars;3;2524;blue;blue,green,purple;300,390,480;150,180,210;32;1;1;6uxj0y0bq40ezqx;true;166.668;390;195;psychophysics;531351;practice_trials;NULL;NULL;NULL;NULL;12_11_2020_15_52_59
11;2;2;noStructureCont;query;3;970;blue;blue,green,purple;300,390,480;150,180,210;49;1;1;6uxj0y0bq40ezqx;true;166.667;390;195;psychophysics;533329;practice_trial;NULL;NULL;NULL;NULL;12_11_2020_15_52_59
12;6;2;noStructureCont;bars;7;5563;red;red,saddlebrown,purple,pink,green,black,orange;120,210,300,390,480,570,660;150,180,210,240,270,300,330;32;1;1;6uxj0y0bq40ezqx;true;167.154;390;195;psychophysics;540906;practice_trials;NULL;NULL;NULL;NULL;12_11_2020_15_52_59
12;6;2;noStructureCont;query;7;1959;red;red,saddlebrown,purple,pink,green,black,orange;120,210,300,390,480,570,660;150,180,210,240,270,300,330;49;1;1;6uxj0y0bq40ezqx;true;166.683;390;195;psychophysics;543872;practice_trial;NULL;NULL;NULL;NULL;12_11_2020_15_52_59
13;3;2;noStructureCont;bars;4;2534;saddlebrown;saddlebrown,green,black,yellow;210,300,390,480;210,240,270,300;32;1;1;6uxj0y0bq40ezqx;true;166.659;390;195;psychophysics;548414;practice_trials;NULL;NULL;NULL;NULL;12_11_2020_15_52_59
13;3;2;noStructureCont;query;4;1223;saddlebrown;saddlebrown,green,black,yellow;210,300,390,480;210,240,270,300;49;1;1;6uxj0y0bq40ezqx;true;166.667;390;195;psychophysics;550647;practice_trial;NULL;NULL;NULL;NULL;12_11_2020_15_52_59
14;1;2;noStructureCont;bars;2;1355;purple;white,purple;300,39;210,24;32;2;2;6uxj0y0bq40ezqx;true;166.623;390;195;psychophysics;554016;practice_trials;NULL;NULL;NULL;NULL;12_11_2020_15_52_59
14;1;2;noStructureCont;query;2;871;purple;white,purple;300,39;210,24;50;2;2;6uxj0y0bq40ezqx;true;166.659;390;195;psychophysics;555895;practice_trial;NULL;NULL;NULL;NULL;12_11_2020_15_52_59
NULL;NULL;NULL;NULL;end_of_practice;NULL;2611;NULL;NULL;NULL;NULL;32;NULL;NULL;6uxj0y0bq40ezqx;NULL;NULL;NULL;NULL;html-keyboard-response;559511;practice_trials;559523;932.538;0.857143;NULL;12_11_2020_15_52_59
1;5;1;noStructureExp;bars;6;5654;black;red,black,pink,saddlebrown,orange,purple;120,210,300,480,570,390;180,210,240,270,300,330;32;2;2;6bgu3gb30fralnf;true;16.863;390;195;psychophysics;27287;practice_trials;NULL;NULL;NULL;NULL;12_11_2020_16_8_19
1;5;1;noStructureExp;query;6;3771;black;red,black,pink,saddlebrown,orange,purple;120,210,300,480,570,390;180,210,240,270,300,330;50;2;2;6bgu3gb30fralnf;true;166.634;390;195;psychophysics;32070;practice_trial;NULL;NULL;NULL;NULL;12_11_2020_16_8_19
2;6;1;noStructureExp;bars;7;4773;pink;pink,red,yellow,blue,orange,white,purple;570,210,300,660,120,480,390;150,180,210,240,270,300,330;32;1;1;6bgu3gb30fralnf;true;167.258;390;195;psychophysics;38854;practice_trials;NULL;NULL;NULL;NULL;12_11_2020_16_8_19
2;6;1;noStructureExp;query;7;3715;pink;pink,red,yellow,blue,orange,white,purple;570,210,300,660,120,480,390;150,180,210,240,270,300,330;49;1;1;6bgu3gb30fralnf;true;167.446;390;195;psychophysics;43578;practice_trial;NULL;NULL;NULL;NULL;12_11_2020_16_8_19
3;4;1;noStructureExp;bars;5;7995;orange;blue,yellow,red,orange,pink;570,300,480,210,390;150,180,210,240,270;32;4;4;6bgu3gb30fralnf;true;16.665;390;195;psychophysics;53583;practice_trials;NULL;NULL;NULL;NULL;12_11_2020_16_8_19
3;4;1;noStructureExp;query;5;2691;orange;blue,yellow,red,orange,pink;570,300,480,210,390;150,180,210,240,270;52;4;4;6bgu3gb30fralnf;true;166.629;390;195;psychophysics;57279;practice_trial;NULL;NULL;NULL;NULL;12_11_2020_16_8_19
4;2;1;noStructureExp;bars;3;3288;yellow;yellow,orange,green;390,300,480;180,210,240;32;1;1;6bgu3gb30fralnf;true;166.696;390;195;psychophysics;62575;practice_trials;NULL;NULL;NULL;NULL;12_11_2020_16_8_19
4;2;1;noStructureExp;query;3;1393;yellow;yellow,orange,green;390,300,480;180,210,240;49;1;1;6bgu3gb30fralnf;true;166.591;390;195;psychophysics;64976;practice_trial;NULL;NULL;NULL;NULL;12_11_2020_16_8_19
5;1;1;noStructureExp;bars;2;1182;yellow;blue,yellow;300,39;180,21;32;2;2;6bgu3gb30fralnf;true;166.576;390;195;psychophysics;68166;practice_trials;NULL;NULL;NULL;NULL;12_11_2020_16_8_19
5;1;1;noStructureExp;query;2;1211;yellow;blue,yellow;300,39;180,21;50;2;2;6bgu3gb30fralnf;true;166.615;390;195;psychophysics;70382;practice_trial;NULL;NULL;NULL;NULL;12_11_2020_16_8_19
6;3;1;noStructureExp;bars;4;3786;orange;yellow,orange,saddlebrown,white;300,390,210,480;210,240,270,300;32;2;2;6bgu3gb30fralnf;true;166.632;390;195;psychophysics;76176;practice_trials;NULL;NULL;NULL;NULL;12_11_2020_16_8_19
6;3;1;noStructureExp;query;4;1610;orange;yellow,orange,saddlebrown,white;300,390,210,480;210,240,270,300;50;2;2;6bgu3gb30fralnf;true;166.639;390;195;psychophysics;78791;practice_trial;NULL;NULL;NULL;NULL;12_11_2020_16_8_19
7;0;1;noStructureExp;bars;1;814;blue;blue;390;150;32;1;1;6bgu3gb30fralnf;true;166.623;390;195;psychophysics;81622;practice_trials;NULL;NULL;NULL;NULL;12_11_2020_16_8_19
7;0;1;noStructureExp;query;1;656;blue;blue;390;150;49;1;1;6bgu3gb30fralnf;true;166.744;390;195;psychophysics;83286;practice_trial;NULL;NULL;NULL;NULL;12_11_2020_16_8_19
8;1;2;noStructureCont;bars;2;1185;red;yellow,red;300,39;180,21;32;2;2;6bgu3gb30fralnf;true;166.756;390;195;psychophysics;87918;practice_trials;NULL;NULL;NULL;NULL;12_11_2020_16_8_19
8;1;2;noStructureCont;query;2;827;red;yellow,red;300,39;180,21;50;2;2;6bgu3gb30fralnf;true;166.709;390;195;psychophysics;89750;practice_trial;NULL;NULL;NULL;NULL;12_11_2020_16_8_19
9;2;2;noStructureCont;bars;3;1430;blue;blue,green,orange;300,390,480;180,210,240;32;1;1;6bgu3gb30fralnf;true;168.561;390;195;psychophysics;93191;practice_trials;NULL;NULL;NULL;NULL;12_11_2020_16_8_19
9;2;2;noStructureCont;query;3;998;blue;blue,green,orange;300,390,480;180,210,240;49;1;1;6bgu3gb30fralnf;true;166.683;390;195;psychophysics;95196;practice_trial;NULL;NULL;NULL;NULL;12_11_2020_16_8_19
10;4;2;noStructureCont;bars;5;5463;black;purple,orange,saddlebrown,black,red;210,300,390,480,570;150,180,210,240,270;32;4;4;6bgu3gb30fralnf;true;166.642;390;195;psychophysics;102675;practice_trials;NULL;NULL;NULL;NULL;12_11_2020_16_8_19
10;4;2;noStructureCont;query;5;2046;black;purple,orange,saddlebrown,black,red;210,300,390,480,570;150,180,210,240,270;52;4;4;6bgu3gb30fralnf;true;166.688;390;195;psychophysics;105725;practice_trial;NULL;NULL;NULL;NULL;12_11_2020_16_8_19
11;0;2;noStructureCont;bars;1;744;pink;pink;390;150;32;1;1;6bgu3gb30fralnf;true;166.687;390;195;psychophysics;108477;practice_trials;NULL;NULL;NULL;NULL;12_11_2020_16_8_19
11;0;2;noStructureCont;query;1;348;pink;pink;390;150;49;1;1;6bgu3gb30fralnf;true;16.64;390;195;psychophysics;109830;practice_trial;NULL;NULL;NULL;NULL;12_11_2020_16_8_19
12;3;2;noStructureCont;bars;4;3137;pink;blue,pink,black,white;210,300,390,480;210,240,270,300;32;2;2;6bgu3gb30fralnf;true;166.668;390;195;psychophysics;114976;practice_trials;NULL;NULL;NULL;NULL;12_11_2020_16_8_19
12;3;2;noStructureCont;query;4;938;pink;blue,pink,black,white;210,300,390,480;210,240,270,300;50;2;2;6bgu3gb30fralnf;true;16.683;390;195;psychophysics;116919;practice_trial;NULL;NULL;NULL;NULL;12_11_2020_16_8_19
13;5;2;noStructureCont;bars;6;8391;red;green,red,black,orange,pink,purple;120,210,300,390,480,570;180,210,240,270,300,330;32;2;2;6bgu3gb30fralnf;true;16.666;390;195;psychophysics;127318;practice_trials;NULL;NULL;NULL;NULL;12_11_2020_16_8_19
13;5;2;noStructureCont;query;6;1118;red;green,red,black,orange,pink,purple;120,210,300,390,480,570;180,210,240,270,300,330;50;2;2;6bgu3gb30fralnf;true;166.688;390;195;psychophysics;129447;practice_trial;NULL;NULL;NULL;NULL;12_11_2020_16_8_19
14;6;2;noStructureCont;bars;7;5586;pink;pink,purple,yellow,orange,red,blue,saddlebrown;120,210,300,390,480,570,660;150,180,210,240,270,300,330;32;1;1;6bgu3gb30fralnf;true;167.169;390;195;psychophysics;137046;practice_trials;NULL;NULL;NULL;NULL;12_11_2020_16_8_19
14;6;2;noStructureCont;query;7;2515;pink;pink,purple,yellow,orange,red,blue,saddlebrown;120,210,300,390,480,570,660;150,180,210,240,270,300,330;49;1;1;6bgu3gb30fralnf;true;166.677;390;195;psychophysics;140566;practice_trial;NULL;NULL;NULL;NULL;12_11_2020_16_8_19
NULL;NULL;NULL;NULL;end_of_practice;NULL;963;NULL;NULL;NULL;NULL;32;NULL;NULL;6bgu3gb30fralnf;NULL;NULL;NULL;NULL;html-keyboard-response;142534;practice_trials;142541;237.568;1;NULL;12_11_2020_16_8_19
1;4;1;noStructureExp;bars;5;7611;red;blue,white,yellow,red,purple;300,480,570,210,390;210,240,270,300,330;32;4;1;yk8p17dzbyo4tt0;false;171.959;390;195;psychophysics;39770;practice_trials;NULL;NULL;NULL;NULL;12_11_2020_16_9_47
1;4;1;noStructureExp;query;5;5145;red;blue,white,yellow,red,purple;300,480,570,210,390;210,240,270,300,330;49;4;1;yk8p17dzbyo4tt0;false;168.314;390;195;psychophysics;45921;practice_trial;NULL;NULL;NULL;NULL;12_11_2020_16_9_47
2;2;1;noStructureExp;bars;3;7704;saddlebrown;black,saddlebrown,red;300,390,480;150,180,210;32;2;2;yk8p17dzbyo4tt0;true;171.513;390;195;psychophysics;55635;practice_trials;NULL;NULL;NULL;NULL;12_11_2020_16_9_47
2;2;1;noStructureExp;query;3;4617;saddlebrown;black,saddlebrown,red;300,390,480;150,180,210;50;2;2;yk8p17dzbyo4tt0;true;167.291;390;195;psychophysics;61257;practice_trial;NULL;NULL;NULL;NULL;12_11_2020_16_9_47
3;0;1;noStructureExp;bars;1;4722;orange;orange;390;270;32;1;1;yk8p17dzbyo4tt0;true;16.668;390;195;psychophysics;67987;practice_trials;NULL;NULL;NULL;NULL;12_11_2020_16_9_47
3;0;1;noStructureExp;query;1;1033;orange;orange;390;270;49;1;1;yk8p17dzbyo4tt0;true;166.668;390;195;psychophysics;70024;practice_trial;NULL;NULL;NULL;NULL;12_11_2020_16_9_47
4;1;1;noStructureExp;bars;2;7697;yellow;black,yellow;300,39;180,21;32;2;2;yk8p17dzbyo4tt0;true;172.283;390;195;psychophysics;79728;practice_trials;NULL;NULL;NULL;NULL;12_11_2020_16_9_47
4;1;1;noStructureExp;query;2;1267;yellow;black,yellow;300,39;180,21;50;2;2;yk8p17dzbyo4tt0;true;166.661;390;195;psychophysics;82000;practice_trial;NULL;NULL;NULL;NULL;12_11_2020_16_9_47
5;6;1;noStructureExp;bars;7;7314;black;purple,red,blue,black,yellow,saddlebrown,pink;120,570,480,300,210,660,390;150,180,210,240,270,300,330;32;4;3;yk8p17dzbyo4tt0;false;173.837;390;195;psychophysics;91323;practice_trials;NULL;NULL;NULL;NULL;12_11_2020_16_9_47
5;6;1;noStructureExp;query;7;3740;black;purple,red,blue,black,yellow,saddlebrown,pink;120,570,480,300,210,660,390;150,180,210,240,270,300,330;51;4;3;yk8p17dzbyo4tt0;false;16.817;390;195;psychophysics;96080;practice_trial;NULL;NULL;NULL;NULL;12_11_2020_16_9_47
6;3;1;noStructureExp;bars;4;7687;purple;blue,saddlebrown,red,purple;300,480,210,390;180,210,240,270;32;4;3;yk8p17dzbyo4tt0;false;172.668;390;195;psychophysics;105776;practice_trials;NULL;NULL;NULL;NULL;12_11_2020_16_9_47
6;3;1;noStructureExp;query;4;3498;purple;blue,saddlebrown,red,purple;300,480,210,390;180,210,240,270;51;4;3;yk8p17dzbyo4tt0;false;166.669;390;195;psychophysics;110279;practice_trial;NULL;NULL;NULL;NULL;12_11_2020_16_9_47
7;5;1;noStructureExp;bars;6;8822;red;black,red,pink,saddlebrown,white,purple;480,570,300,210,390,120;150,180,210,240,270,300;32;2;6;yk8p17dzbyo4tt0;false;175.314;390;195;psychophysics;121114;practice_trials;NULL;NULL;NULL;NULL;12_11_2020_16_9_47
7;5;1;noStructureExp;query;6;6439;red;black,red,pink,saddlebrown,white,purple;480,570,300,210,390,120;150,180,210,240,270,300;54;2;6;yk8p17dzbyo4tt0;false;168.426;390;195;psychophysics;128568;practice_trial;NULL;NULL;NULL;NULL;12_11_2020_16_9_47
8;5;2;noStructureCont;bars;6;9113;orange;red,orange,black,saddlebrown,white,purple;120,210,300,390,480,570;150,180,210,240,270,300;32;2;2;yk8p17dzbyo4tt0;true;17.171;390;195;psychophysics;144640;practice_trials;NULL;NULL;NULL;NULL;12_11_2020_16_9_47
8;5;2;noStructureCont;query;6;4743;orange;red,orange,black,saddlebrown,white,purple;120,210,300,390,480,570;150,180,210,240,270,300;50;2;2;yk8p17dzbyo4tt0;true;169.054;390;195;psychophysics;150393;practice_trial;NULL;NULL;NULL;NULL;12_11_2020_16_9_47
9;2;2;noStructureCont;bars;3;6793;green;red,green,white;300,390,480;150,180,210;32;2;2;yk8p17dzbyo4tt0;true;180.456;390;195;psychophysics;159195;practice_trials;NULL;NULL;NULL;NULL;12_11_2020_16_9_47
9;2;2;noStructureCont;query;3;2509;green;red,green,white;300,390,480;150,180,210;50;2;2;yk8p17dzbyo4tt0;true;167.808;390;195;psychophysics;162711;practice_trial;NULL;NULL;NULL;NULL;12_11_2020_16_9_47
10;1;2;noStructureCont;bars;2;7592;orange;green,orange;300,39;180,21;32;2;2;yk8p17dzbyo4tt0;true;174.736;390;195;psychophysics;172312;practice_trials;NULL;NULL;NULL;NULL;12_11_2020_16_9_47
10;1;2;noStructureCont;query;2;1378;orange;green,orange;300,39;180,21;50;2;2;yk8p17dzbyo4tt0;true;166.667;390;195;psychophysics;174697;practice_trial;NULL;NULL;NULL;NULL;12_11_2020_16_9_47
11;3;2;noStructureCont;bars;4;7998;yellow;pink,orange,black,yellow;210,300,390,480;180,210,240,270;32;4;4;yk8p17dzbyo4tt0;true;170.597;390;195;psychophysics;184704;practice_trials;NULL;NULL;NULL;NULL;12_11_2020_16_9_47
11;3;2;noStructureCont;query;4;5536;yellow;pink,orange,black,yellow;210,300,390,480;180,210,240,270;52;4;4;yk8p17dzbyo4tt0;true;169.743;390;195;psychophysics;191248;practice_trial;NULL;NULL;NULL;NULL;12_11_2020_16_9_47
12;4;2;noStructureCont;bars;5;6719;green;white,red,pink,green,black;210,300,390,480,570;210,240,270,300,330;32;4;4;yk8p17dzbyo4tt0;true;17.449;390;195;psychophysics;199975;practice_trials;NULL;NULL;NULL;NULL;12_11_2020_16_9_47
12;4;2;noStructureCont;query;5;5627;green;white,red,pink,green,black;210,300,390,480,570;210,240,270,300,330;52;4;4;yk8p17dzbyo4tt0;true;170.728;390;195;psychophysics;206610;practice_trial;NULL;NULL;NULL;NULL;12_11_2020_16_9_47
13;6;2;noStructureCont;bars;7;6909;pink;green,white,black,pink,blue,yellow,red;120,210,300,390,480,570,660;150,180,210,240,270,300,330;32;4;4;yk8p17dzbyo4tt0;true;178.338;390;195;psychophysics;215544;practice_trials;NULL;NULL;NULL;NULL;12_11_2020_16_9_47
13;6;2;noStructureCont;query;7;4683;pink;green,white,black,pink,blue,yellow,red;120,210,300,390,480,570,660;150,180,210,240,270,300,330;52;4;4;yk8p17dzbyo4tt0;true;167.269;390;195;psychophysics;221239;practice_trial;NULL;NULL;NULL;NULL;12_11_2020_16_9_47
14;0;2;noStructureCont;bars;1;4651;saddlebrown;saddlebrown;390;270;32;1;1;yk8p17dzbyo4tt0;true;169.714;390;195;psychophysics;227911;practice_trials;NULL;NULL;NULL;NULL;12_11_2020_16_9_47
14;0;2;noStructureCont;query;1;1136;saddlebrown;saddlebrown;390;270;49;1;1;yk8p17dzbyo4tt0;true;166.693;390;195;psychophysics;230054;practice_trial;NULL;NULL;NULL;NULL;12_11_2020_16_9_47
NULL;NULL;NULL;NULL;end_of_practice;NULL;3043;NULL;NULL;NULL;NULL;32;NULL;NULL;yk8p17dzbyo4tt0;NULL;NULL;NULL;NULL;html-keyboard-response;234136;practice_trials;234146;390.243;0.714286;NULL;12_11_2020_16_9_47
1;3;1;noStructureExp;bars;4;8162;red;blue,green,red,saddlebrown;300,390,480,210;240,270,300,330;32;3;51;fxvjruocb65oy7q;invalid response;166.551;390;195;psychophysics;26639;practice_trials;NULL;NULL;NULL;NULL;12_11_2020_16_10_49
1;3;1;noStructureExp;query;4;10286;red;blue,green,red,saddlebrown;300,390,480,210;240,270,300,330;99;3;51;fxvjruocb65oy7q;invalid response;166.751;390;195;psychophysics;37935;practice_trial;NULL;NULL;NULL;NULL;12_11_2020_16_10_49
2;2;1;noStructureExp;bars;3;9367;black;yellow,black,red;480,390,300;150,180,210;32;2;49;fxvjruocb65oy7q;invalid response;166.508;390;195;psychophysics;53310;practice_trials;NULL;NULL;NULL;NULL;12_11_2020_16_10_49
2;2;1;noStructureExp;query;3;3251;black;yellow,black,red;480,390,300;150,180,210;97;2;49;fxvjruocb65oy7q;invalid response;167.076;390;195;psychophysics;57566;practice_trial;NULL;NULL;NULL;NULL;12_11_2020_16_10_49
3;4;1;noStructureExp;bars;5;14609;saddlebrown;pink,orange,saddlebrown,white,yellow;210,300,390,570,480;180,210,240,270,300;32;3;3;fxvjruocb65oy7q;true;166.211;390;195;psychophysics;78182;practice_trials;NULL;NULL;NULL;NULL;12_11_2020_16_10_49
3;4;1;noStructureExp;query;5;13731;saddlebrown;pink,orange,saddlebrown,white,yellow;210,300,390,570,480;180,210,240,270,300;51;3;3;fxvjruocb65oy7q;true;261.009;390;195;psychophysics;92920;practice_trial;NULL;NULL;NULL;NULL;12_11_2020_16_10_49
4;0;1;noStructureExp;bars;1;1681;saddlebrown;saddlebrown;390;210;32;1;3;fxvjruocb65oy7q;false;166.219;390;195;psychophysics;96606;practice_trials;NULL;NULL;NULL;NULL;12_11_2020_16_10_49
4;0;1;noStructureExp;query;1;3571;saddlebrown;saddlebrown;390;210;51;1;3;fxvjruocb65oy7q;false;298.891;390;195;psychophysics;101182;practice_trial;NULL;NULL;NULL;NULL;12_11_2020_16_10_49
5;6;1;noStructureExp;bars;7;12466;red;pink,purple,blue,orange,red,white,black;660,210,570,300,390,480,120;150,180,210,240,270,300,330;32;5;5;fxvjruocb65oy7q;true;204.758;390;195;psychophysics;115654;practice_trials;NULL;NULL;NULL;NULL;12_11_2020_16_10_49
5;6;1;noStructureExp;query;7;6442;red;pink,purple,blue,orange,red,white,black;660,210,570,300,390,480,120;150,180,210,240,270,300,330;53;5;5;fxvjruocb65oy7q;true;166.642;390;195;psychophysics;123102;practice_trial;NULL;NULL;NULL;NULL;12_11_2020_16_10_49
6;5;1;noStructureExp;bars;6;34664;black;pink,purple,green,orange,saddlebrown,black;120,210,390,570,480,300;180,210,240,270,300,330;32;6;6;fxvjruocb65oy7q;true;166.292;390;195;psychophysics;159774;practice_trials;NULL;NULL;NULL;NULL;12_11_2020_16_10_49
6;5;1;noStructureExp;query;6;6426;black;pink,purple,green,orange,saddlebrown,black;120,210,390,570,480,300;180,210,240,270,300,330;54;6;6;fxvjruocb65oy7q;true;166.213;390;195;psychophysics;167205;practice_trial;NULL;NULL;NULL;NULL;12_11_2020_16_10_49
7;1;1;noStructureExp;bars;2;9370;green;purple,green;390,3;300,33;32;2;1;fxvjruocb65oy7q;false;166.213;390;195;psychophysics;178582;practice_trials;NULL;NULL;NULL;NULL;12_11_2020_16_10_49
7;1;1;noStructureExp;query;2;1858;green;purple,green;390,3;300,33;49;2;1;fxvjruocb65oy7q;false;166.206;390;195;psychophysics;181445;practice_trial;NULL;NULL;NULL;NULL;12_11_2020_16_10_49
8;3;2;noStructureCont;bars;4;13516;black;white,green,black,saddlebrown;210,300,390,480;240,270,300,330;32;3;3;fxvjruocb65oy7q;true;166.212;390;195;psychophysics;201477;practice_trials;NULL;NULL;NULL;NULL;12_11_2020_16_10_49
8;3;2;noStructureCont;query;4;5603;black;white,green,black,saddlebrown;210,300,390,480;240,270,300,330;51;3;3;fxvjruocb65oy7q;true;166.212;390;195;psychophysics;208086;practice_trial;NULL;NULL;NULL;NULL;12_11_2020_16_10_49
9;2;2;noStructureCont;bars;3;12219;blue;red,blue,orange;300,390,480;150,180,210;32;2;2;fxvjruocb65oy7q;true;166.212;390;195;psychophysics;222309;practice_trials;NULL;NULL;NULL;NULL;12_11_2020_16_10_49
9;2;2;noStructureCont;query;3;5634;blue;red,blue,orange;300,390,480;150,180,210;50;2;2;fxvjruocb65oy7q;true;166.214;390;195;psychophysics;228950;practice_trial;NULL;NULL;NULL;NULL;12_11_2020_16_10_49
10;4;2;noStructureCont;bars;5;9641;yellow;purple,green,yellow,saddlebrown,white;210,300,390,480,570;180,210,240,270,300;32;3;3;fxvjruocb65oy7q;true;166.212;390;195;psychophysics;240597;practice_trials;NULL;NULL;NULL;NULL;12_11_2020_16_10_49
10;4;2;noStructureCont;query;5;5148;yellow;purple,green,yellow,saddlebrown,white;210,300,390,480,570;180,210,240,270,300;51;3;3;fxvjruocb65oy7q;true;166.208;390;195;psychophysics;246750;practice_trial;NULL;NULL;NULL;NULL;12_11_2020_16_10_49
11;1;2;noStructureCont;bars;2;3898;purple;red,purple;300,39;300,33;32;2;2;fxvjruocb65oy7q;true;166.211;390;195;psychophysics;252653;practice_trials;NULL;NULL;NULL;NULL;12_11_2020_16_10_49
11;1;2;noStructureCont;query;2;1515;purple;red,purple;300,39;300,33;50;2;2;fxvjruocb65oy7q;true;166.211;390;195;psychophysics;255172;practice_trial;NULL;NULL;NULL;NULL;12_11_2020_16_10_49
12;6;2;noStructureCont;bars;7;17873;green;pink,yellow,purple,saddlebrown,green,orange,black;120,210,300,390,480,570,660;150,180,210,240,270,300,330;32;5;5;fxvjruocb65oy7q;true;166.366;390;195;psychophysics;275052;practice_trials;NULL;NULL;NULL;NULL;12_11_2020_16_10_49
12;6;2;noStructureCont;query;7;3923;green;pink,yellow,purple,saddlebrown,green,orange,black;120,210,300,390,480,570,660;150,180,210,240,270,300,330;53;5;5;fxvjruocb65oy7q;true;166.211;390;195;psychophysics;279980;practice_trial;NULL;NULL;NULL;NULL;12_11_2020_16_10_49
13;5;2;noStructureCont;bars;6;11338;blue;purple,yellow,pink,saddlebrown,orange,blue;120,210,300,390,480,570;180,210,240,270,300,330;32;6;6;fxvjruocb65oy7q;true;16.621;390;195;psychophysics;293324;practice_trials;NULL;NULL;NULL;NULL;12_11_2020_16_10_49
13;5;2;noStructureCont;query;6;3411;blue;purple,yellow,pink,saddlebrown,orange,blue;120,210,300,390,480,570;180,210,240,270,300,330;54;6;6;fxvjruocb65oy7q;true;166.214;390;195;psychophysics;297740;practice_trial;NULL;NULL;NULL;NULL;12_11_2020_16_10_49
14;0;2;noStructureCont;bars;1;1375;purple;purple;390;210;32;1;1;fxvjruocb65oy7q;true;166.205;390;195;psychophysics;301124;practice_trials;NULL;NULL;NULL;NULL;12_11_2020_16_10_49
14;0;2;noStructureCont;query;1;1052;purple;purple;390;210;49;1;1;fxvjruocb65oy7q;true;166.219;390;195;psychophysics;303180;practice_trial;NULL;NULL;NULL;NULL;12_11_2020_16_10_49
NULL;NULL;NULL;NULL;end_of_practice;NULL;10109;NULL;NULL;NULL;NULL;32;NULL;NULL;fxvjruocb65oy7q;NULL;NULL;NULL;NULL;html-keyboard-response;314292;practice_trials;314298;52.383;0.714286;NULL;12_11_2020_16_10_49
1;3;1;noStructureExp;bars;4;5669;orange;purple,orange,saddlebrown,red;300,390,480,210;210,240,270,300;32;2;3;uet3pdw7hgm1hea;false;173.303;390;195;psychophysics;1158755;practice_trials;NULL;NULL;NULL;NULL;12_11_2020_15_55_7
1;3;1;noStructureExp;query;4;4396;orange;purple,orange,saddlebrown,red;300,390,480,210;210,240,270,300;51;2;3;uet3pdw7hgm1hea;false;167.312;390;195;psychophysics;1164166;practice_trial;NULL;NULL;NULL;NULL;12_11_2020_15_55_7
2;5;1;noStructureExp;bars;6;5690;orange;purple,green,orange,saddlebrown,black,white;210,300,120,480,390,570;150,180,210,240,270,300;32;3;1;uet3pdw7hgm1hea;false;176.511;390;195;psychophysics;1171866;practice_trials;NULL;NULL;NULL;NULL;12_11_2020_15_55_7
2;5;1;noStructureExp;query;6;3420;orange;purple,green,orange,saddlebrown,black,white;210,300,120,480,390,570;150,180,210,240,270,300;49;3;1;uet3pdw7hgm1hea;false;167.478;390;195;psychophysics;1176316;practice_trial;NULL;NULL;NULL;NULL;12_11_2020_15_55_7
3;0;1;noStructureExp;bars;1;2269;purple;purple;390;330;32;1;1;uet3pdw7hgm1hea;true;167.921;390;195;psychophysics;1180594;practice_trials;NULL;NULL;NULL;NULL;12_11_2020_15_55_7
3;0;1;noStructureExp;query;1;989;purple;purple;390;330;49;1;1;uet3pdw7hgm1hea;true;166.677;390;195;psychophysics;1182593;practice_trial;NULL;NULL;NULL;NULL;12_11_2020_15_55_7
4;1;1;noStructureExp;bars;2;6898;saddlebrown;pink,saddlebrown;300,39;210,24;32;2;2;uet3pdw7hgm1hea;true;178.336;390;195;psychophysics;1191501;practice_trials;NULL;NULL;NULL;NULL;12_11_2020_15_55_7
4;1;1;noStructureExp;query;2;3508;saddlebrown;pink,saddlebrown;300,39;210,24;50;2;2;uet3pdw7hgm1hea;true;167.467;390;195;psychophysics;1196017;practice_trial;NULL;NULL;NULL;NULL;12_11_2020_15_55_7
5;4;1;noStructureExp;bars;5;5954;purple;white,yellow,pink,purple,green;390,570,210,480,300;210,240,270,300,330;32;4;4;uet3pdw7hgm1hea;true;178.725;390;195;psychophysics;1203985;practice_trials;NULL;NULL;NULL;NULL;12_11_2020_15_55_7
5;4;1;noStructureExp;query;5;3769;purple;white,yellow,pink,purple,green;390,570,210,480,300;210,240,270,300,330;52;4;4;uet3pdw7hgm1hea;true;168.166;390;195;psychophysics;1208762;practice_trial;NULL;NULL;NULL;NULL;12_11_2020_15_55_7
6;6;1;noStructureExp;bars;7;6862;yellow;red,purple,black,yellow,green,orange,blue;300,480,570,120,660,390,210;150,180,210,240,270,300,330;32;4;1;uet3pdw7hgm1hea;false;173.889;390;195;psychophysics;1217637;practice_trials;NULL;NULL;NULL;NULL;12_11_2020_15_55_7
6;6;1;noStructureExp;query;7;5248;yellow;red,purple,black,yellow,green,orange,blue;300,480,570,120,660,390,210;150,180,210,240,270,300,330;49;4;1;uet3pdw7hgm1hea;false;168.278;390;195;psychophysics;1223889;practice_trial;NULL;NULL;NULL;NULL;12_11_2020_15_55_7
7;2;1;noStructureExp;bars;3;8194;orange;orange,white,purple;300,480,390;270,300,330;32;1;1;uet3pdw7hgm1hea;true;174.124;390;195;psychophysics;1234091;practice_trials;NULL;NULL;NULL;NULL;12_11_2020_15_55_7
7;2;1;noStructureExp;query;3;2497;orange;orange,white,purple;300,480,390;270,300,330;49;1;1;uet3pdw7hgm1hea;true;166.677;390;195;psychophysics;1237593;practice_trial;NULL;NULL;NULL;NULL;12_11_2020_15_55_7
8;0;2;noStructureCont;bars;1;1627;white;white;390;330;32;1;1;uet3pdw7hgm1hea;true;170.209;390;195;psychophysics;1243049;practice_trials;NULL;NULL;NULL;NULL;12_11_2020_15_55_7
8;0;2;noStructureCont;query;1;899;white;white;390;330;49;1;1;uet3pdw7hgm1hea;true;166.673;390;195;psychophysics;1244955;practice_trial;NULL;NULL;NULL;NULL;12_11_2020_15_55_7
9;1;2;noStructureCont;bars;2;6573;white;green,white;300,39;210,24;32;2;2;uet3pdw7hgm1hea;true;171.001;390;195;psychophysics;1253560;practice_trials;NULL;NULL;NULL;NULL;12_11_2020_15_55_7
9;1;2;noStructureCont;query;2;3040;white;green,white;300,39;210,24;50;2;2;uet3pdw7hgm1hea;true;168.528;390;195;psychophysics;1257635;practice_trial;NULL;NULL;NULL;NULL;12_11_2020_15_55_7
10;2;2;noStructureCont;bars;3;6039;white;white,blue,red;300,390,480;270,300,330;32;1;1;uet3pdw7hgm1hea;true;176.448;390;195;psychophysics;1265682;practice_trials;NULL;NULL;NULL;NULL;12_11_2020_15_55_7
10;2;2;noStructureCont;query;3;2749;white;white,blue,red;300,390,480;270,300,330;49;1;1;uet3pdw7hgm1hea;true;166.678;390;195;psychophysics;1269436;practice_trial;NULL;NULL;NULL;NULL;12_11_2020_15_55_7
11;3;2;noStructureCont;bars;4;5812;purple;yellow,purple,red,green;210,300,390,480;210,240,270,300;32;2;2;uet3pdw7hgm1hea;true;177.386;390;195;psychophysics;1277265;practice_trials;NULL;NULL;NULL;NULL;12_11_2020_15_55_7
11;3;2;noStructureCont;query;4;1988;purple;yellow,purple,red,green;210,300,390,480;210,240,270,300;50;2;2;uet3pdw7hgm1hea;true;175.606;390;195;psychophysics;1280260;practice_trial;NULL;NULL;NULL;NULL;12_11_2020_15_55_7
12;6;2;noStructureCont;bars;7;6300;red;blue,purple,saddlebrown,red,pink,green,white;120,210,300,390,480,570,660;150,180,210,240,270,300,330;32;4;4;uet3pdw7hgm1hea;true;179.535;390;195;psychophysics;1288569;practice_trials;NULL;NULL;NULL;NULL;12_11_2020_15_55_7
12;6;2;noStructureCont;query;7;2694;red;blue,purple,saddlebrown,red,pink,green,white;120,210,300,390,480,570,660;150,180,210,240,270,300,330;52;4;4;uet3pdw7hgm1hea;true;166.656;390;195;psychophysics;1292285;practice_trial;NULL;NULL;NULL;NULL;12_11_2020_15_55_7
13;4;2;noStructureCont;bars;5;5714;black;orange,pink,saddlebrown,black,green;210,300,390,480,570;210,240,270,300,330;32;4;4;uet3pdw7hgm1hea;true;176.482;390;195;psychophysics;1300017;practice_trials;NULL;NULL;NULL;NULL;12_11_2020_15_55_7
13;4;2;noStructureCont;query;5;2392;black;orange,pink,saddlebrown,black,green;210,300,390,480,570;210,240,270,300,330;52;4;4;uet3pdw7hgm1hea;true;169.048;390;195;psychophysics;1303418;practice_trial;NULL;NULL;NULL;NULL;12_11_2020_15_55_7
14;5;2;noStructureCont;bars;6;5597;black;white,saddlebrown,black,red,yellow,green;120,210,300,390,480,570;150,180,210,240,270,300;32;3;3;uet3pdw7hgm1hea;true;17.556;390;195;psychophysics;1311032;practice_trials;NULL;NULL;NULL;NULL;12_11_2020_15_55_7
14;5;2;noStructureCont;query;6;4348;black;white,saddlebrown,black,red,yellow,green;120,210,300,390,480,570;150,180,210,240,270,300;51;3;3;uet3pdw7hgm1hea;true;167.975;390;195;psychophysics;1316389;practice_trial;NULL;NULL;NULL;NULL;12_11_2020_15_55_7
NULL;NULL;NULL;NULL;end_of_practice;NULL;2589;NULL;NULL;NULL;NULL;32;NULL;NULL;uet3pdw7hgm1hea;NULL;NULL;NULL;NULL;html-keyboard-response;1319985;practice_trials;1319998;22;0.785714;NULL;12_11_2020_15_55_7
1;1;1;noStructureExp;bars;2;2436;black;purple,black;390,3;270,3;32;2;2;5svylj0got3o9ad;true;166.419;390;195;psychophysics;245630;practice_trials;NULL;NULL;NULL;NULL;12_11_2020_4_55_13
1;1;1;noStructureExp;query;2;6071;black;purple,black;390,3;270,3;50;2;2;5svylj0got3o9ad;true;166.403;390;195;psychophysics;252711;practice_trial;NULL;NULL;NULL;NULL;12_11_2020_4_55_13
2;0;1;noStructureExp;bars;1;5796;red;red;390;270;32;1;1;5svylj0got3o9ad;true;166.415;390;195;psychophysics;260526;practice_trials;NULL;NULL;NULL;NULL;12_11_2020_4_55_13
2;0;1;noStructureExp;query;1;1290;red;red;390;270;49;1;1;5svylj0got3o9ad;true;166.421;390;195;psychophysics;262831;practice_trial;NULL;NULL;NULL;NULL;12_11_2020_4_55_13
3;3;1;noStructureExp;bars;4;4587;red;orange,white,red,green;390,210,300,480;210,240,270,300;32;3;1;5svylj0got3o9ad;false;166.419;390;195;psychophysics;269440;practice_trials;NULL;NULL;NULL;NULL;12_11_2020_4_55_13
3;3;1;noStructureExp;query;4;1262;red;orange,white,red,green;390,210,300,480;210,240,270,300;49;3;1;5svylj0got3o9ad;false;166.409;390;195;psychophysics;271711;practice_trial;NULL;NULL;NULL;NULL;12_11_2020_4_55_13
4;5;1;noStructureExp;bars;6;9384;white;pink,yellow,white,black,green,red;570,390,210,300,480,120;180,210,240,270,300,330;32;3;2;5svylj0got3o9ad;false;166.409;390;195;psychophysics;283117;practice_trials;NULL;NULL;NULL;NULL;12_11_2020_4_55_13
4;5;1;noStructureExp;query;6;2143;white;pink,yellow,white,black,green,red;570,390,210,300,480,120;180,210,240,270,300,330;50;3;2;5svylj0got3o9ad;false;166.395;390;195;psychophysics;286270;practice_trial;NULL;NULL;NULL;NULL;12_11_2020_4_55_13
5;6;1;noStructureExp;bars;7;3721;white;white,yellow,black,blue,green,purple,red;480,300,390,570,120,210,660;150,180,210,240,270,300,330;32;1;3;5svylj0got3o9ad;false;16.64;390;195;psychophysics;292004;practice_trials;NULL;NULL;NULL;NULL;12_11_2020_4_55_13
5;6;1;noStructureExp;query;7;2293;white;white,yellow,black,blue,green,purple,red;480,300,390,570,120,210,660;150,180,210,240,270,300,330;51;1;3;5svylj0got3o9ad;false;16.641;390;195;psychophysics;295303;practice_trial;NULL;NULL;NULL;NULL;12_11_2020_4_55_13
6;4;1;noStructureExp;bars;5;59194;yellow;saddlebrown,purple,blue,yellow,pink;300,390,210,480,570;180,210,240,270,300;32;4;4;5svylj0got3o9ad;true;708.885;390;195;psychophysics;356514;practice_trials;NULL;NULL;NULL;NULL;12_11_2020_4_55_13
6;4;1;noStructureExp;query;5;1646;yellow;saddlebrown,purple,blue,yellow,pink;300,390,210,480,570;180,210,240,270,300;52;4;4;5svylj0got3o9ad;true;166.393;390;195;psychophysics;359177;practice_trial;NULL;NULL;NULL;NULL;12_11_2020_4_55_13
7;2;1;noStructureExp;bars;3;4664;orange;orange,green,saddlebrown;480,390,300;270,300,330;32;1;3;5svylj0got3o9ad;false;166.404;390;195;psychophysics;365863;practice_trials;NULL;NULL;NULL;NULL;12_11_2020_4_55_13
7;2;1;noStructureExp;query;3;2112;orange;orange,green,saddlebrown;480,390,300;270,300,330;51;1;3;5svylj0got3o9ad;false;166.405;390;195;psychophysics;368985;practice_trial;NULL;NULL;NULL;NULL;12_11_2020_4_55_13
8;5;2;noStructureCont;bars;6;3940;saddlebrown;red,green,saddlebrown,pink,white,yellow;120,210,300,390,480,570;180,210,240,270,300,330;32;3;3;5svylj0got3o9ad;true;166.405;390;195;psychophysics;385615;practice_trials;NULL;NULL;NULL;NULL;12_11_2020_4_55_13
8;5;2;noStructureCont;query;6;1707;saddlebrown;red,green,saddlebrown,pink,white,yellow;120,210,300,390,480,570;180,210,240,270,300,330;51;3;3;5svylj0got3o9ad;true;166.406;390;195;psychophysics;388327;practice_trial;NULL;NULL;NULL;NULL;12_11_2020_4_55_13
9;1;2;noStructureCont;bars;2;1826;pink;white,pink;300,39;270,3;32;2;2;5svylj0got3o9ad;true;166.411;390;195;psychophysics;392177;practice_trials;NULL;NULL;NULL;NULL;12_11_2020_4_55_13
9;1;2;noStructureCont;query;2;723;pink;white,pink;300,39;270,3;50;2;2;5svylj0got3o9ad;true;166.433;390;195;psychophysics;393911;practice_trial;NULL;NULL;NULL;NULL;12_11_2020_4_55_13
10;3;2;noStructureCont;bars;4;2950;saddlebrown;blue,pink,saddlebrown,black;210,300,390,480;210,240,270,300;32;3;2;5svylj0got3o9ad;false;166.408;390;195;psychophysics;398883;practice_trials;NULL;NULL;NULL;NULL;12_11_2020_4_55_13
10;3;2;noStructureCont;query;4;1475;saddlebrown;blue,pink,saddlebrown,black;210,300,390,480;210,240,270,300;50;3;2;5svylj0got3o9ad;false;166.434;390;195;psychophysics;401369;practice_trial;NULL;NULL;NULL;NULL;12_11_2020_4_55_13
11;6;2;noStructureCont;bars;7;3562;orange;orange,black,green,red,white,saddlebrown,blue;120,210,300,390,480,570,660;150,180,210,240,270,300,330;32;1;1;5svylj0got3o9ad;true;16.641;390;195;psychophysics;406950;practice_trials;NULL;NULL;NULL;NULL;12_11_2020_4_55_13
11;6;2;noStructureCont;query;7;717;orange;orange,black,green,red,white,saddlebrown,blue;120,210,300,390,480,570,660;150,180,210,240,270,300,330;49;1;1;5svylj0got3o9ad;true;166.442;390;195;psychophysics;408671;practice_trial;NULL;NULL;NULL;NULL;12_11_2020_4_55_13
12;4;2;noStructureCont;bars;5;3745;blue;orange,black,red,blue,white;210,300,390,480,570;180,210,240,270,300;32;4;4;5svylj0got3o9ad;true;166.414;390;195;psychophysics;414437;practice_trials;NULL;NULL;NULL;NULL;12_11_2020_4_55_13
12;4;2;noStructureCont;query;5;1424;blue;orange,black,red,blue,white;210,300,390,480,570;180,210,240,270,300;52;4;4;5svylj0got3o9ad;true;166.429;390;195;psychophysics;416876;practice_trial;NULL;NULL;NULL;NULL;12_11_2020_4_55_13
13;2;2;noStructureCont;bars;3;2535;white;white,purple,black;300,390,480;270,300,330;32;1;1;5svylj0got3o9ad;true;166.417;390;195;psychophysics;421426;practice_trials;NULL;NULL;NULL;NULL;12_11_2020_4_55_13
13;2;2;noStructureCont;query;3;733;white;white,purple,black;300,390,480;270,300,330;49;1;1;5svylj0got3o9ad;true;166.459;390;195;psychophysics;423167;practice_trial;NULL;NULL;NULL;NULL;12_11_2020_4_55_13
14;0;2;noStructureCont;bars;1;1202;saddlebrown;saddlebrown;390;270;32;1;1;5svylj0got3o9ad;true;166.424;390;195;psychophysics;426392;practice_trials;NULL;NULL;NULL;NULL;12_11_2020_4_55_13
14;0;2;noStructureCont;query;1;497;saddlebrown;saddlebrown;390;270;49;1;1;5svylj0got3o9ad;true;166.374;390;195;psychophysics;427901;practice_trial;NULL;NULL;NULL;NULL;12_11_2020_4_55_13
NULL;NULL;NULL;NULL;end_of_practice;NULL;4650;NULL;NULL;NULL;NULL;32;NULL;NULL;5svylj0got3o9ad;NULL;NULL;NULL;NULL;html-keyboard-response;433565;practice_trials;433573;722.622;0.642857;NULL;12_11_2020_4_55_13
1;11;1;noStructureExp;bars;3;6125;orange;saddlebrown,orange,red;390,300,480;240,270,300;32;2;1;uet3pdw7hgm1hea;false;170.395;390;195;psychophysics;10434;experimental_data;NULL;NULL;NULL;NULL;12_11_2020_16_17_37
1;11;1;noStructureExp;query;3;2437;orange;saddlebrown,orange,red;390,300,480;240,270,300;49;2;1;uet3pdw7hgm1hea;false;168.995;390;195;psychophysics;13885;experimental_data;NULL;NULL;NULL;NULL;12_11_2020_16_17_37
2;17;1;noStructureExp;bars;4;4912;red;red,pink,purple,yellow;390,210,300,480;210,240,270,300;32;1;3;uet3pdw7hgm1hea;false;182.848;390;195;psychophysics;20805;experimental_data;NULL;NULL;NULL;NULL;12_11_2020_16_17_37
2;17;1;noStructureExp;query;4;2455;red;red,pink,purple,yellow;390,210,300,480;210,240,270,300;51;1;3;uet3pdw7hgm1hea;false;171.344;390;195;psychophysics;24268;experimental_data;NULL;NULL;NULL;NULL;12_11_2020_16_17_37
3;7;1;noStructureExp;bars;2;7103;yellow;white,yellow;300,39;240,27;32;2;2;uet3pdw7hgm1hea;true;173.621;390;195;psychophysics;33383;experimental_data;NULL;NULL;NULL;NULL;12_11_2020_16_17_37
3;7;1;noStructureExp;query;2;1157;yellow;white,yellow;300,39;240,27;50;2;2;uet3pdw7hgm1hea;true;166.674;390;195;psychophysics;35548;experimental_data;NULL;NULL;NULL;NULL;12_11_2020_16_17_37
4;30;1;noStructureExp;bars;7;5515;green;saddlebrown,black,green,red,purple,orange,blue;480,120,660,570,210,300,390;150,180,210,240,270,300,330;32;3;7;uet3pdw7hgm1hea;false;179.164;390;195;psychophysics;43076;experimental_data;NULL;NULL;NULL;NULL;12_11_2020_16_17_37
4;30;1;noStructureExp;query;7;7955;green;saddlebrown,black,green,red,purple,orange,blue;480,120,660,570,210,300,390;150,180,210,240,270,300,330;55;3;7;uet3pdw7hgm1hea;false;167.731;390;195;psychophysics;52038;experimental_data;NULL;NULL;NULL;NULL;12_11_2020_16_17_37
5;10;1;noStructureExp;bars;3;6358;green;white,green,black;390,300,480;210,240,270;32;2;1;uet3pdw7hgm1hea;false;174.938;390;195;psychophysics;60404;experimental_data;NULL;NULL;NULL;NULL;12_11_2020_16_17_37
5;10;1;noStructureExp;query;3;2899;green;white,green,black;390,300,480;210,240,270;49;2;1;uet3pdw7hgm1hea;false;167.646;390;195;psychophysics;64310;experimental_data;NULL;NULL;NULL;NULL;12_11_2020_16_17_37
6;34;1;noStructureExp;bars;7;5658;blue;saddlebrown,white,blue,green,red,orange,black;120,210,300,660,480,570,390;150,180,210,240,270,300,330;32;3;3;uet3pdw7hgm1hea;true;177.684;390;195;psychophysics;71981;experimental_data;NULL;NULL;NULL;NULL;12_11_2020_16_17_37
6;34;1;noStructureExp;query;7;3617;blue;saddlebrown,white,blue,green,red,orange,black;120,210,300,660,480,570,390;150,180,210,240,270,300,330;51;3;3;uet3pdw7hgm1hea;true;170.626;390;195;psychophysics;76612;experimental_data;NULL;NULL;NULL;NULL;12_11_2020_16_17_37
7;24;1;noStructureExp;bars;5;4980;green;green,blue,purple,orange,yellow;480,300,210,570,390;210,240,270,300,330;32;1;4;uet3pdw7hgm1hea;false;179.963;390;195;psychophysics;83606;experimental_data;NULL;NULL;NULL;NULL;12_11_2020_16_17_37
7;24;1;noStructureExp;query;5;5041;green;green,blue,purple,orange,yellow;480,300,210,570,390;210,240,270,300,330;52;1;4;uet3pdw7hgm1hea;false;168.353;390;195;psychophysics;89656;experimental_data;NULL;NULL;NULL;NULL;12_11_2020_16_17_37
8;18;1;noStructureExp;bars;4;6784;purple;green,purple,red,orange;480,390,300,210;150,180,210,240;32;2;3;uet3pdw7hgm1hea;false;180.941;390;195;psychophysics;98451;experimental_data;NULL;NULL;NULL;NULL;12_11_2020_16_17_37
8;18;1;noStructureExp;query;4;4990;purple;green,purple,red,orange;480,390,300,210;150,180,210,240;51;2;3;uet3pdw7hgm1hea;false;168.366;390;195;psychophysics;104453;experimental_data;NULL;NULL;NULL;NULL;12_11_2020_16_17_37
9;33;1;noStructureExp;bars;7;5980;white;orange,saddlebrown,purple,blue,white,pink,yellow;660,570,300,120,390,210,480;150,180,210,240,270,300,330;32;5;4;uet3pdw7hgm1hea;false;184.738;390;195;psychophysics;112451;experimental_data;NULL;NULL;NULL;NULL;12_11_2020_16_17_37
9;33;1;noStructureExp;query;7;5573;white;orange,saddlebrown,purple,blue,white,pink,yellow;660,570,300,120,390,210,480;150,180,210,240,270,300,330;52;5;4;uet3pdw7hgm1hea;false;168.698;390;195;psychophysics;119042;experimental_data;NULL;NULL;NULL;NULL;12_11_2020_16_17_37
10;1;1;noStructureExp;bars;1;1661;red;red;390;300;32;1;1;uet3pdw7hgm1hea;true;166.674;390;195;psychophysics;122715;experimental_data;NULL;NULL;NULL;NULL;12_11_2020_16_17_37
10;1;1;noStructureExp;query;1;2933;red;red;390;300;49;1;1;uet3pdw7hgm1hea;true;166.662;390;195;psychophysics;126667;experimental_data;NULL;NULL;NULL;NULL;12_11_2020_16_17_37
11;23;1;noStructureExp;bars;5;16847;orange;white,orange,black,green,purple;570,480,210,300,390;180,210,240,270,300;32;2;2;uet3pdw7hgm1hea;true;171.774;390;195;psychophysics;145544;experimental_data;NULL;NULL;NULL;NULL;12_11_2020_16_17_37
11;23;1;noStructureExp;query;5;5419;orange;white,orange,black,green,purple;570,480,210,300,390;180,210,240,270,300;50;2;2;uet3pdw7hgm1hea;true;169.824;390;195;psychophysics;151971;experimental_data;NULL;NULL;NULL;NULL;12_11_2020_16_17_37
12;20;1;noStructureExp;bars;5;5576;yellow;pink,orange,yellow,red,saddlebrown;390,480,210,570,300;150,180,210,240,270;32;3;3;uet3pdw7hgm1hea;true;176.759;390;195;psychophysics;159558;experimental_data;NULL;NULL;NULL;NULL;12_11_2020_16_17_37
12;20;1;noStructureExp;query;5;6879;yellow;pink,orange,yellow,red,saddlebrown;390,480,210,570,300;150,180,210,240,270;51;3;3;uet3pdw7hgm1hea;true;168.726;390;195;psychophysics;167451;experimental_data;NULL;NULL;NULL;NULL;12_11_2020_16_17_37
13;5;1;noStructureExp;bars;2;6378;green;yellow,green;300,39;180,21;32;2;2;uet3pdw7hgm1hea;true;170.723;390;195;psychophysics;175848;experimental_data;NULL;NULL;NULL;NULL;12_11_2020_16_17_37
13;5;1;noStructureExp;query;2;2479;green;yellow,green;300,39;180,21;50;2;2;uet3pdw7hgm1hea;true;166.678;390;195;psychophysics;179338;experimental_data;NULL;NULL;NULL;NULL;12_11_2020_16_17_37
14;14;1;noStructureExp;bars;3;5737;green;green,saddlebrown,purple;300,480,390;240,270,300;32;1;2;uet3pdw7hgm1hea;false;180.348;390;195;psychophysics;187091;experimental_data;NULL;NULL;NULL;NULL;12_11_2020_16_17_37
14;14;1;noStructureExp;query;3;5798;green;green,saddlebrown,purple;300,480,390;240,270,300;50;1;2;uet3pdw7hgm1hea;false;168.615;390;195;psychophysics;193915;experimental_data;NULL;NULL;NULL;NULL;12_11_2020_16_17_37
15;12;1;noStructureExp;bars;3;4936;orange;pink,black,orange;300,480,390;270,300,330;32;3;3;uet3pdw7hgm1hea;true;17.313;390;195;psychophysics;200859;experimental_data;NULL;NULL;NULL;NULL;12_11_2020_16_17_37
15;12;1;noStructureExp;query;3;6806;orange;pink,black,orange;300,480,390;270,300,330;51;3;3;uet3pdw7hgm1hea;true;169.582;390;195;psychophysics;208675;experimental_data;NULL;NULL;NULL;NULL;12_11_2020_16_17_37
16;22;1;noStructureExp;bars;5;4657;purple;purple,green,black,blue,pink;390,570,210,300,480;180,210,240,270,300;32;1;1;uet3pdw7hgm1hea;true;173.518;390;195;psychophysics;215341;experimental_data;NULL;NULL;NULL;NULL;12_11_2020_16_17_37
16;22;1;noStructureExp;query;5;5215;purple;purple,green,black,blue,pink;390,570,210,300,480;180,210,240,270,300;49;1;1;uet3pdw7hgm1hea;true;16.775;390;195;psychophysics;221563;experimental_data;NULL;NULL;NULL;NULL;12_11_2020_16_17_37
17;15;1;noStructureExp;bars;4;4760;green;saddlebrown,black,green,red;390,210,300,480;150,180,210,240;32;3;3;uet3pdw7hgm1hea;true;184.186;390;195;psychophysics;228338;experimental_data;NULL;NULL;NULL;NULL;12_11_2020_16_17_37
17;15;1;noStructureExp;query;4;5687;green;saddlebrown,black,green,red;390,210,300,480;150,180,210,240;51;3;3;uet3pdw7hgm1hea;true;171.708;390;195;psychophysics;235036;experimental_data;NULL;NULL;NULL;NULL;12_11_2020_16_17_37
18;32;1;noStructureExp;bars;7;8876;purple;yellow,orange,blue,black,pink,purple,green;570,390,480,120,210,660,300;150,180,210,240,270,300,330;32;6;6;uet3pdw7hgm1hea;true;173.864;390;195;psychophysics;245923;experimental_data;NULL;NULL;NULL;NULL;12_11_2020_16_17_37
18;32;1;noStructureExp;query;7;12834;purple;yellow,orange,blue,black,pink,purple,green;570,390,480,120,210,660,300;150,180,210,240,270,300,330;54;6;6;uet3pdw7hgm1hea;true;167.986;390;195;psychophysics;259765;experimental_data;NULL;NULL;NULL;NULL;12_11_2020_16_17_37
19;0;1;noStructureExp;bars;1;2039;green;green;390;180;32;1;1;uet3pdw7hgm1hea;true;168.052;390;195;psychophysics;263819;experimental_data;NULL;NULL;NULL;NULL;12_11_2020_16_17_37
19;0;1;noStructureExp;query;1;1097;green;green;390;180;49;1;1;uet3pdw7hgm1hea;true;166.688;390;195;psychophysics;265922;experimental_data;NULL;NULL;NULL;NULL;12_11_2020_16_17_37
20;19;1;noStructureExp;bars;4;6531;white;black,green,blue,white;300,480,210,390;210,240,270,300;32;4;4;uet3pdw7hgm1hea;true;176.612;390;195;psychophysics;274475;experimental_data;NULL;NULL;NULL;NULL;12_11_2020_16_17_37
20;19;1;noStructureExp;query;4;7011;white;black,green,blue,white;300,480,210,390;210,240,270,300;52;4;4;uet3pdw7hgm1hea;true;168.278;390;195;psychophysics;282493;experimental_data;NULL;NULL;NULL;NULL;12_11_2020_16_17_37
21;4;1;noStructureExp;bars;1;1412;black;black;390;300;32;1;1;uet3pdw7hgm1hea;true;168.691;390;195;psychophysics;285914;experimental_data;NULL;NULL;NULL;NULL;12_11_2020_16_17_37
21;4;1;noStructureExp;query;1;906;black;black;390;300;49;1;1;uet3pdw7hgm1hea;true;166.698;390;195;psychophysics;287826;experimental_data;NULL;NULL;NULL;NULL;12_11_2020_16_17_37
22;3;1;noStructureExp;bars;1;1119;saddlebrown;saddlebrown;390;300;32;1;1;uet3pdw7hgm1hea;true;166.668;390;195;psychophysics;290955;experimental_data;NULL;NULL;NULL;NULL;12_11_2020_16_17_37
22;3;1;noStructureExp;query;1;898;saddlebrown;saddlebrown;390;300;49;1;1;uet3pdw7hgm1hea;true;166.678;390;195;psychophysics;292860;experimental_data;NULL;NULL;NULL;NULL;12_11_2020_16_17_37
23;27;1;noStructureExp;bars;6;5358;blue;orange,green,blue,pink,yellow,black;210,570,390,300,480,120;180,210,240,270,300,330;32;3;3;uet3pdw7hgm1hea;true;178.942;390;195;psychophysics;300226;experimental_data;NULL;NULL;NULL;NULL;12_11_2020_16_17_37
23;27;1;noStructureExp;query;6;13234;blue;orange,green,blue,pink,yellow,black;210,570,390,300,480,120;180,210,240,270,300,330;51;3;3;uet3pdw7hgm1hea;true;168.589;390;195;psychophysics;314467;experimental_data;NULL;NULL;NULL;NULL;12_11_2020_16_17_37
24;28;1;noStructureExp;bars;6;5623;orange;black,red,green,purple,blue,orange;480,300,390,120,210,570;180,210,240,270,300,330;32;6;6;uet3pdw7hgm1hea;true;183.558;390;195;psychophysics;322107;experimental_data;NULL;NULL;NULL;NULL;12_11_2020_16_17_37
24;28;1;noStructureExp;query;6;10110;orange;black,red,green,purple,blue,orange;480,300,390,120,210,570;180,210,240,270,300,330;54;6;6;uet3pdw7hgm1hea;true;169.193;390;195;psychophysics;333227;experimental_data;NULL;NULL;NULL;NULL;12_11_2020_16_17_37
25;9;1;noStructureExp;bars;2;5814;orange;green,orange;300,39;180,21;32;2;2;uet3pdw7hgm1hea;true;171.611;390;195;psychophysics;341052;experimental_data;NULL;NULL;NULL;NULL;12_11_2020_16_17_37
25;9;1;noStructureExp;query;2;4673;orange;green,orange;300,39;180,21;50;2;2;uet3pdw7hgm1hea;true;169.712;390;195;psychophysics;346730;experimental_data;NULL;NULL;NULL;NULL;12_11_2020_16_17_37
26;2;1;noStructureExp;bars;1;1152;yellow;yellow;390;300;32;1;1;uet3pdw7hgm1hea;true;166.677;390;195;psychophysics;349890;experimental_data;NULL;NULL;NULL;NULL;12_11_2020_16_17_37
26;2;1;noStructureExp;query;1;788;yellow;yellow;390;300;49;1;1;uet3pdw7hgm1hea;true;16.67;390;195;psychophysics;351691;experimental_data;NULL;NULL;NULL;NULL;12_11_2020_16_17_37
27;16;1;noStructureExp;bars;4;5966;purple;yellow,purple,saddlebrown,orange;300,210,390,480;150,180,210,240;32;2;2;uet3pdw7hgm1hea;true;183.088;390;195;psychophysics;359666;experimental_data;NULL;NULL;NULL;NULL;12_11_2020_16_17_37
27;16;1;noStructureExp;query;4;4611;purple;yellow,purple,saddlebrown,orange;300,210,390,480;150,180,210,240;50;2;2;uet3pdw7hgm1hea;true;171.655;390;195;psychophysics;365284;experimental_data;NULL;NULL;NULL;NULL;12_11_2020_16_17_37
28;13;1;noStructureExp;bars;3;6149;orange;red,orange,pink;390,480,300;270,300,330;32;2;2;uet3pdw7hgm1hea;true;173.275;390;195;psychophysics;373442;experimental_data;NULL;NULL;NULL;NULL;12_11_2020_16_17_37
28;13;1;noStructureExp;query;3;4730;orange;red,orange,pink;390,480,300;270,300,330;50;2;2;uet3pdw7hgm1hea;true;167.859;390;195;psychophysics;379181;experimental_data;NULL;NULL;NULL;NULL;12_11_2020_16_17_37
29;8;1;noStructureExp;bars;2;5803;green;green,white;300,39;150,18;32;1;1;uet3pdw7hgm1hea;true;179.061;390;195;psychophysics;386994;experimental_data;NULL;NULL;NULL;NULL;12_11_2020_16_17_37
29;8;1;noStructureExp;query;2;3364;green;green,white;300,39;150,18;49;1;1;uet3pdw7hgm1hea;true;168.356;390;195;psychophysics;391371;experimental_data;NULL;NULL;NULL;NULL;12_11_2020_16_17_37
30;26;1;noStructureExp;bars;6;6781;purple;blue,green,pink,purple,orange,saddlebrown;210,120,300,570,480,390;180,210,240,270,300,330;32;4;4;uet3pdw7hgm1hea;true;173.068;390;195;psychophysics;400161;experimental_data;NULL;NULL;NULL;NULL;12_11_2020_16_17_37
30;26;1;noStructureExp;query;6;7732;purple;blue,green,pink,purple,orange,saddlebrown;210,120,300,570,480,390;180,210,240,270,300,330;52;4;4;uet3pdw7hgm1hea;true;167.767;390;195;psychophysics;408900;experimental_data;NULL;NULL;NULL;NULL;12_11_2020_16_17_37
31;31;1;noStructureExp;bars;7;6021;blue;yellow,blue,red,white,saddlebrown,pink,green;570,660,480,300,210,120,390;150,180,210,240,270,300,330;32;2;2;uet3pdw7hgm1hea;true;170.955;390;195;psychophysics;416929;experimental_data;NULL;NULL;NULL;NULL;12_11_2020_16_17_37
31;31;1;noStructureExp;query;7;5478;blue;yellow,blue,red,white,saddlebrown,pink,green;570,660,480,300,210,120,390;150,180,210,240,270,300,330;50;2;2;uet3pdw7hgm1hea;true;168.729;390;195;psychophysics;423419;experimental_data;NULL;NULL;NULL;NULL;12_11_2020_16_17_37
32;29;1;noStructureExp;bars;6;4860;red;green,pink,red,purple,yellow,black;120,570,390,210,480,300;180,210,240,270,300,330;32;3;3;uet3pdw7hgm1hea;true;180.309;390;195;psychophysics;430288;experimental_data;NULL;NULL;NULL;NULL;12_11_2020_16_17_37
32;29;1;noStructureExp;query;6;5012;red;green,pink,red,purple,yellow,black;120,570,390,210,480,300;180,210,240,270,300,330;51;3;3;uet3pdw7hgm1hea;true;167.228;390;195;psychophysics;436306;experimental_data;NULL;NULL;NULL;NULL;12_11_2020_16_17_37
33;6;1;noStructureExp;bars;2;5087;white;red,white;390,3;210,24;32;2;2;uet3pdw7hgm1hea;true;170.605;390;195;psychophysics;443401;experimental_data;NULL;NULL;NULL;NULL;12_11_2020_16_17_37
33;6;1;noStructureExp;query;2;1906;white;red,white;390,3;210,24;50;2;2;uet3pdw7hgm1hea;true;166.675;390;195;psychophysics;446314;experimental_data;NULL;NULL;NULL;NULL;12_11_2020_16_17_37
34;21;1;noStructureExp;bars;5;5108;yellow;red,purple,saddlebrown,white,yellow;390,210,570,300,480;150,180,210,240,270;32;5;5;uet3pdw7hgm1hea;true;170.023;390;195;psychophysics;453433;experimental_data;NULL;NULL;NULL;NULL;12_11_2020_16_17_37
34;21;1;noStructureExp;query;5;7731;yellow;red,purple,saddlebrown,white,yellow;390,210,570,300,480;150,180,210,240,270;53;5;5;uet3pdw7hgm1hea;true;167.034;390;195;psychophysics;462173;experimental_data;NULL;NULL;NULL;NULL;12_11_2020_16_17_37
35;25;1;noStructureExp;bars;6;5628;purple;yellow,white,purple,pink,red,orange;570,390,300,480,120,210;180,210,240,270,300,330;32;3;3;uet3pdw7hgm1hea;true;16.97;390;195;psychophysics;469810;experimental_data;NULL;NULL;NULL;NULL;12_11_2020_16_17_37
35;25;1;noStructureExp;query;6;5513;purple;yellow,white,purple,pink,red,orange;570,390,300,480,120,210;180,210,240,270,300,330;51;3;3;uet3pdw7hgm1hea;true;167.188;390;195;psychophysics;476330;experimental_data;NULL;NULL;NULL;NULL;12_11_2020_16_17_37
NULL;NULL;0;NULL;end_of_block;NULL;2408;NULL;NULL;NULL;NULL;32;NULL;NULL;uet3pdw7hgm1hea;NULL;NULL;NULL;NULL;html-keyboard-response;479745;experimental_data;479785;799.642;0.771429;NULL;12_11_2020_16_17_37
36;26;2;sortStructureExp;bars;6;14741;yellow;green,saddlebrown,purple,pink,yellow,orange;210,120,300,570,480,390;180,210,240,270,300,330;32;5;5;uet3pdw7hgm1hea;true;308.246;390;195;psychophysics;495492;experimental_data;NULL;NULL;NULL;NULL;12_11_2020_16_17_37
36;26;2;sortStructureExp;query;6;6022;yellow;green,saddlebrown,purple,pink,yellow,orange;210,120,300,570,480,390;180,210,240,270,300,330;53;5;5;uet3pdw7hgm1hea;true;168.075;390;195;psychophysics;502520;experimental_data;NULL;NULL;NULL;NULL;12_11_2020_16_17_37
37;12;2;sortStructureExp;bars;3;5583;green;green,saddlebrown,purple;300,480,390;270,300,330;32;1;1;uet3pdw7hgm1hea;true;170.767;390;195;psychophysics;510114;experimental_data;NULL;NULL;NULL;NULL;12_11_2020_16_17_37
37;12;2;sortStructureExp;query;3;3648;green;green,saddlebrown,purple;300,480,390;270,300,330;49;1;1;uet3pdw7hgm1hea;true;166.674;390;195;psychophysics;514768;experimental_data;NULL;NULL;NULL;NULL;12_11_2020_16_17_37
38;21;2;sortStructureExp;bars;5;5415;purple;black,pink,green,saddlebrown,purple;390,210,570,300,480;150,180,210,240,270;32;5;5;uet3pdw7hgm1hea;true;171.447;390;195;psychophysics;522194;experimental_data;NULL;NULL;NULL;NULL;12_11_2020_16_17_37
38;21;2;sortStructureExp;query;5;5464;purple;black,pink,green,saddlebrown,purple;390,210,570,300,480;150,180,210,240,270;53;5;5;uet3pdw7hgm1hea;true;167.704;390;195;psychophysics;528664;experimental_data;NULL;NULL;NULL;NULL;12_11_2020_16_17_37
39;24;2;sortStructureExp;bars;5;6177;green;green,saddlebrown,purple,white,yellow;480,300,210,570,390;210,240,270,300,330;32;1;1;uet3pdw7hgm1hea;true;172.746;390;195;psychophysics;536850;experimental_data;NULL;NULL;NULL;NULL;12_11_2020_16_17_37
39;24;2;sortStructureExp;query;5;6464;green;green,saddlebrown,purple,white,yellow;480,300,210,570,390;210,240,270,300,330;49;1;1;uet3pdw7hgm1hea;true;167.105;390;195;psychophysics;544319;experimental_data;NULL;NULL;NULL;NULL;12_11_2020_16_17_37
40;0;2;sortStructureExp;bars;1;1257;green;green;390;180;32;1;1;uet3pdw7hgm1hea;true;166.678;390;195;psychophysics;547595;experimental_data;NULL;NULL;NULL;NULL;12_11_2020_16_17_37
40;0;2;sortStructureExp;query;1;1327;green;green;390;180;49;1;1;uet3pdw7hgm1hea;true;166.687;390;195;psychophysics;549928;experimental_data;NULL;NULL;NULL;NULL;12_11_2020_16_17_37
41;11;2;sortStructureExp;bars;3;5143;purple;green,saddlebrown,purple;390,300,480;240,270,300;32;3;3;uet3pdw7hgm1hea;true;172.847;390;195;psychophysics;557079;experimental_data;NULL;NULL;NULL;NULL;12_11_2020_16_17_37
41;11;2;sortStructureExp;query;3;5413;purple;green,saddlebrown,purple;390,300,480;240,270,300;51;3;3;uet3pdw7hgm1hea;true;166.682;390;195;psychophysics;563499;experimental_data;NULL;NULL;NULL;NULL;12_11_2020_16_17_37
42;17;2;sortStructureExp;bars;4;5444;green;green,saddlebrown,purple,yellow;390,210,300,480;210,240,270,300;32;1;1;uet3pdw7hgm1hea;true;17.087;390;195;psychophysics;570952;experimental_data;NULL;NULL;NULL;NULL;12_11_2020_16_17_37
42;17;2;sortStructureExp;query;4;3259;green;green,saddlebrown,purple,yellow;390,210,300,480;210,240,270,300;49;1;1;uet3pdw7hgm1hea;true;166.682;390;195;psychophysics;575218;experimental_data;NULL;NULL;NULL;NULL;12_11_2020_16_17_37
43;14;2;sortStructureExp;bars;3;4623;saddlebrown;green,saddlebrown,purple;300,480,390;240,270,300;32;2;2;uet3pdw7hgm1hea;true;170.365;390;195;psychophysics;581849;experimental_data;NULL;NULL;NULL;NULL;12_11_2020_16_17_37
43;14;2;sortStructureExp;query;3;3747;saddlebrown;green,saddlebrown,purple;300,480,390;240,270,300;50;2;2;uet3pdw7hgm1hea;true;167.418;390;195;psychophysics;586602;experimental_data;NULL;NULL;NULL;NULL;12_11_2020_16_17_37
44;29;2;sortStructureExp;bars;6;4765;saddlebrown;white,green,saddlebrown,purple,black,yellow;120,570,390,210,480,300;180,210,240,270,300,330;32;3;3;uet3pdw7hgm1hea;true;174.644;390;195;psychophysics;593376;experimental_data;NULL;NULL;NULL;NULL;12_11_2020_16_17_37
44;29;2;sortStructureExp;query;6;5202;saddlebrown;white,green,saddlebrown,purple,black,yellow;120,570,390,210,480,300;180,210,240,270,300,330;51;3;3;uet3pdw7hgm1hea;true;166.677;390;195;psychophysics;599586;experimental_data;NULL;NULL;NULL;NULL;12_11_2020_16_17_37
45;9;2;sortStructureExp;bars;2;5980;green;green,saddlebrown;300,39;180,21;32;1;1;uet3pdw7hgm1hea;true;171.961;390;195;psychophysics;607575;experimental_data;NULL;NULL;NULL;NULL;12_11_2020_16_17_37
45;9;2;sortStructureExp;query;2;1352;green;green,saddlebrown;300,39;180,21;49;1;1;uet3pdw7hgm1hea;true;166.676;390;195;psychophysics;609937;experimental_data;NULL;NULL;NULL;NULL;12_11_2020_16_17_37
46;19;2;sortStructureExp;bars;4;4806;purple;orange,green,saddlebrown,purple;300,480,210,390;210,240,270,300;32;4;4;uet3pdw7hgm1hea;true;16.962;390;195;psychophysics;616751;experimental_data;NULL;NULL;NULL;NULL;12_11_2020_16_17_37
46;19;2;sortStructureExp;query;4;5467;purple;orange,green,saddlebrown,purple;300,480,210,390;210,240,270,300;52;4;4;uet3pdw7hgm1hea;true;166.677;390;195;psychophysics;623225;experimental_data;NULL;NULL;NULL;NULL;12_11_2020_16_17_37
47;2;2;sortStructureExp;bars;1;1239;green;green;390;300;32;1;1;uet3pdw7hgm1hea;true;166.685;390;195;psychophysics;626479;experimental_data;NULL;NULL;NULL;NULL;12_11_2020_16_17_37
47;2;2;sortStructureExp;query;1;1071;green;green;390;300;49;1;1;uet3pdw7hgm1hea;true;166.694;390;195;psychophysics;628561;experimental_data;NULL;NULL;NULL;NULL;12_11_2020_16_17_37
48;10;2;sortStructureExp;bars;3;5524;green;green,saddlebrown,purple;390,300,480;210,240,270;32;1;1;uet3pdw7hgm1hea;true;170.274;390;195;psychophysics;636098;experimental_data;NULL;NULL;NULL;NULL;12_11_2020_16_17_37
48;10;2;sortStructureExp;query;3;3563;green;green,saddlebrown,purple;390,300,480;210,240,270;49;1;1;uet3pdw7hgm1hea;true;167.459;390;195;psychophysics;640672;experimental_data;NULL;NULL;NULL;NULL;12_11_2020_16_17_37
49;13;2;sortStructureExp;bars;3;5083;purple;green,saddlebrown,purple;390,480,300;270,300,330;32;3;3;uet3pdw7hgm1hea;true;172.948;390;195;psychophysics;647764;experimental_data;NULL;NULL;NULL;NULL;12_11_2020_16_17_37
49;13;2;sortStructureExp;query;3;4534;purple;green,saddlebrown,purple;390,480,300;270,300,330;51;3;3;uet3pdw7hgm1hea;true;169.152;390;195;psychophysics;653321;experimental_data;NULL;NULL;NULL;NULL;12_11_2020_16_17_37
50;15;2;sortStructureExp;bars;4;5622;saddlebrown;green,saddlebrown,purple,white;390,210,300,480;150,180,210,240;32;2;2;uet3pdw7hgm1hea;true;17.339;390;195;psychophysics;660955;experimental_data;NULL;NULL;NULL;NULL;12_11_2020_16_17_37
50;15;2;sortStructureExp;query;4;3015;saddlebrown;green,saddlebrown,purple,white;390,210,300,480;150,180,210,240;50;2;2;uet3pdw7hgm1hea;true;167.607;390;195;psychophysics;664976;experimental_data;NULL;NULL;NULL;NULL;12_11_2020_16_17_37
51;23;2;sortStructureExp;bars;5;4865;saddlebrown;white,black,green,saddlebrown,purple;570,480,210,300,390;180,210,240,270,300;32;4;4;uet3pdw7hgm1hea;true;174.472;390;195;psychophysics;671849;experimental_data;NULL;NULL;NULL;NULL;12_11_2020_16_17_37
51;23;2;sortStructureExp;query;5;5555;saddlebrown;white,black,green,saddlebrown,purple;570,480,210,300,390;180,210,240,270,300;52;4;4;uet3pdw7hgm1hea;true;167.691;390;195;psychophysics;678418;experimental_data;NULL;NULL;NULL;NULL;12_11_2020_16_17_37
52;20;2;sortStructureExp;bars;5;6250;purple;yellow,blue,green,saddlebrown,purple;390,480,210,570,300;150,180,210,240,270;32;5;5;uet3pdw7hgm1hea;true;17.032;390;195;psychophysics;686681;experimental_data;NULL;NULL;NULL;NULL;12_11_2020_16_17_37
52;20;2;sortStructureExp;query;5;6181;purple;yellow,blue,green,saddlebrown,purple;390,480,210,570,300;150,180,210,240,270;53;5;5;uet3pdw7hgm1hea;true;168.488;390;195;psychophysics;693903;experimental_data;NULL;NULL;NULL;NULL;12_11_2020_16_17_37
53;5;2;sortStructureExp;bars;2;4591;saddlebrown;green,saddlebrown;300,39;180,21;32;2;2;uet3pdw7hgm1hea;true;170.405;390;195;psychophysics;700506;experimental_data;NULL;NULL;NULL;NULL;12_11_2020_16_17_37
53;5;2;sortStructureExp;query;2;3238;saddlebrown;green,saddlebrown;300,39;180,21;50;2;2;uet3pdw7hgm1hea;true;166.676;390;195;psychophysics;704751;experimental_data;NULL;NULL;NULL;NULL;12_11_2020_16_17_37
54;32;2;sortStructureExp;bars;7;14949;saddlebrown;pink,green,saddlebrown,purple,black,blue,yellow;570,390,480,120,210,660,300;150,180,210,240,270,300,330;32;3;3;uet3pdw7hgm1hea;true;168.941;390;195;psychophysics;721713;experimental_data;NULL;NULL;NULL;NULL;12_11_2020_16_17_37
54;32;2;sortStructureExp;query;7;5791;saddlebrown;pink,green,saddlebrown,purple,black,blue,yellow;570,390,480,120,210,660,300;150,180,210,240,270,300,330;51;3;3;uet3pdw7hgm1hea;true;166.675;390;195;psychophysics;728511;experimental_data;NULL;NULL;NULL;NULL;12_11_2020_16_17_37
55;27;2;sortStructureExp;bars;6;5458;purple;red,yellow,blue,green,saddlebrown,purple;210,570,390,300,480,120;180,210,240,270,300,330;32;6;6;uet3pdw7hgm1hea;true;171.936;390;195;psychophysics;735977;experimental_data;NULL;NULL;NULL;NULL;12_11_2020_16_17_37
55;27;2;sortStructureExp;query;6;8550;purple;red,yellow,blue,green,saddlebrown,purple;210,570,390,300,480,120;180,210,240,270,300,330;54;6;6;uet3pdw7hgm1hea;true;167.655;390;195;psychophysics;745534;experimental_data;NULL;NULL;NULL;NULL;12_11_2020_16_17_37
56;16;2;sortStructureExp;bars;4;5734;purple;green,saddlebrown,purple,yellow;300,210,390,480;150,180,210,240;32;3;3;uet3pdw7hgm1hea;true;16.964;390;195;psychophysics;753281;experimental_data;NULL;NULL;NULL;NULL;12_11_2020_16_17_37
56;16;2;sortStructureExp;query;4;4455;purple;green,saddlebrown,purple,yellow;300,210,390,480;150,180,210,240;51;3;3;uet3pdw7hgm1hea;true;167.301;390;195;psychophysics;758743;experimental_data;NULL;NULL;NULL;NULL;12_11_2020_16_17_37
57;31;2;sortStructureExp;bars;7;4774;red;green,saddlebrown,purple,black,red,blue,white;570,660,480,300,210,120,390;150,180,210,240,270,300,330;32;5;5;uet3pdw7hgm1hea;true;172.739;390;195;psychophysics;765529;experimental_data;NULL;NULL;NULL;NULL;12_11_2020_16_17_37
57;31;2;sortStructureExp;query;7;12248;red;green,saddlebrown,purple,black,red,blue,white;570,660,480,300,210,120,390;150,180,210,240,270,300,330;53;5;5;uet3pdw7hgm1hea;true;167.134;390;195;psychophysics;778792;experimental_data;NULL;NULL;NULL;NULL;12_11_2020_16_17_37
58;34;2;sortStructureExp;bars;7;5835;blue;red,white,blue,green,saddlebrown,purple,black;120,210,300,660,480,570,390;150,180,210,240,270,300,330;32;3;3;uet3pdw7hgm1hea;true;170.585;390;195;psychophysics;786638;experimental_data;NULL;NULL;NULL;NULL;12_11_2020_16_17_37
58;34;2;sortStructureExp;query;7;5283;blue;red,white,blue,green,saddlebrown,purple,black;120,210,300,660,480,570,390;150,180,210,240,270,300,330;51;3;3;uet3pdw7hgm1hea;true;167.206;390;195;psychophysics;792927;experimental_data;NULL;NULL;NULL;NULL;12_11_2020_16_17_37
59;28;2;sortStructureExp;bars;6;4604;pink;green,saddlebrown,purple,pink,white,orange;480,300,390,120,210,570;180,210,240,270,300,330;32;4;4;uet3pdw7hgm1hea;true;172.968;390;195;psychophysics;799541;experimental_data;NULL;NULL;NULL;NULL;12_11_2020_16_17_37
59;28;2;sortStructureExp;query;6;7087;pink;green,saddlebrown,purple,pink,white,orange;480,300,390,120,210,570;180,210,240,270,300,330;52;4;4;uet3pdw7hgm1hea;true;166.676;390;195;psychophysics;807640;experimental_data;NULL;NULL;NULL;NULL;12_11_2020_16_17_37
60;18;2;sortStructureExp;bars;4;5291;purple;green,saddlebrown,purple,red;480,390,300,210;150,180,210,240;32;3;3;uet3pdw7hgm1hea;true;170.997;390;195;psychophysics;814942;experimental_data;NULL;NULL;NULL;NULL;12_11_2020_16_17_37
60;18;2;sortStructureExp;query;4;4868;purple;green,saddlebrown,purple,red;480,390,300,210;150,180,210,240;51;3;3;uet3pdw7hgm1hea;true;166.671;390;195;psychophysics;820817;experimental_data;NULL;NULL;NULL;NULL;12_11_2020_16_17_37
61;25;2;sortStructureExp;bars;6;12046;green;green,saddlebrown,purple,white,red,blue;570,390,300,480,120,210;180,210,240,270,300,330;32;1;1;uet3pdw7hgm1hea;true;263.328;390;195;psychophysics;834871;experimental_data;NULL;NULL;NULL;NULL;12_11_2020_16_17_37
61;25;2;sortStructureExp;query;6;4609;green;green,saddlebrown,purple,white,red,blue;570,390,300,480,120,210;180,210,240,270,300,330;49;1;1;uet3pdw7hgm1hea;true;166.678;390;195;psychophysics;840486;experimental_data;NULL;NULL;NULL;NULL;12_11_2020_16_17_37
62;22;2;sortStructureExp;bars;5;5417;green;red,green,saddlebrown,purple,orange;390,570,210,300,480;180,210,240,270,300;32;2;2;uet3pdw7hgm1hea;true;174.205;390;195;psychophysics;847911;experimental_data;NULL;NULL;NULL;NULL;12_11_2020_16_17_37
62;22;2;sortStructureExp;query;5;5215;green;red,green,saddlebrown,purple,orange;390,570,210,300,480;180,210,240,270,300;50;2;2;uet3pdw7hgm1hea;true;166.677;390;195;psychophysics;854133;experimental_data;NULL;NULL;NULL;NULL;12_11_2020_16_17_37
63;33;2;sortStructureExp;bars;7;5231;saddlebrown;orange,blue,red,green,saddlebrown,purple,black;660,570,300,120,390,210,480;150,180,210,240,270,300,330;32;5;5;uet3pdw7hgm1hea;true;171.047;390;195;psychophysics;861375;experimental_data;NULL;NULL;NULL;NULL;12_11_2020_16_17_37
63;33;2;sortStructureExp;query;7;6784;saddlebrown;orange,blue,red,green,saddlebrown,purple,black;660,570,300,120,390,210,480;150,180,210,240,270,300,330;53;5;5;uet3pdw7hgm1hea;true;167.091;390;195;psychophysics;869167;experimental_data;NULL;NULL;NULL;NULL;12_11_2020_16_17_37
64;3;2;sortStructureExp;bars;1;1200;green;green;390;300;32;1;1;uet3pdw7hgm1hea;true;166.679;390;195;psychophysics;872376;experimental_data;NULL;NULL;NULL;NULL;12_11_2020_16_17_37
64;3;2;sortStructureExp;query;1;1199;green;green;390;300;49;1;1;uet3pdw7hgm1hea;true;166.676;390;195;psychophysics;874582;experimental_data;NULL;NULL;NULL;NULL;12_11_2020_16_17_37
65;6;2;sortStructureExp;bars;2;5252;saddlebrown;green,saddlebrown;390,3;210,24;32;2;2;uet3pdw7hgm1hea;true;169.917;390;195;psychophysics;881846;experimental_data;NULL;NULL;NULL;NULL;12_11_2020_16_17_37
65;6;2;sortStructureExp;query;2;2508;saddlebrown;green,saddlebrown;390,3;210,24;50;2;2;uet3pdw7hgm1hea;true;167.792;390;195;psychophysics;885360;experimental_data;NULL;NULL;NULL;NULL;12_11_2020_16_17_37
66;4;2;sortStructureExp;bars;1;974;green;green;390;300;32;1;1;uet3pdw7hgm1hea;true;166.693;390;195;psychophysics;888342;experimental_data;NULL;NULL;NULL;NULL;12_11_2020_16_17_37
66;4;2;sortStructureExp;query;1;1402;green;green;390;300;49;1;1;uet3pdw7hgm1hea;true;166.669;390;195;psychophysics;890750;experimental_data;NULL;NULL;NULL;NULL;12_11_2020_16_17_37
67;1;2;sortStructureExp;bars;1;927;green;green;390;300;32;1;1;uet3pdw7hgm1hea;true;166.681;390;195;psychophysics;893694;experimental_data;NULL;NULL;NULL;NULL;12_11_2020_16_17_37
67;1;2;sortStructureExp;query;1;329;green;green;390;300;49;1;1;uet3pdw7hgm1hea;true;166.653;390;195;psychophysics;895030;experimental_data;NULL;NULL;NULL;NULL;12_11_2020_16_17_37
68;8;2;sortStructureExp;bars;2;6024;green;green,saddlebrown;300,39;150,18;32;1;1;uet3pdw7hgm1hea;true;169.498;390;195;psychophysics;903064;experimental_data;NULL;NULL;NULL;NULL;12_11_2020_16_17_37
68;8;2;sortStructureExp;query;2;5432;green;green,saddlebrown;300,39;150,18;49;1;1;uet3pdw7hgm1hea;true;166.674;390;195;psychophysics;909501;experimental_data;NULL;NULL;NULL;NULL;12_11_2020_16_17_37
69;7;2;sortStructureExp;bars;2;13000;saddlebrown;green,saddlebrown;300,39;240,27;32;2;2;uet3pdw7hgm1hea;true;24.031;390;195;psychophysics;924511;experimental_data;NULL;NULL;NULL;NULL;12_11_2020_16_17_37
69;7;2;sortStructureExp;query;2;3087;saddlebrown;green,saddlebrown;300,39;240,27;50;2;2;uet3pdw7hgm1hea;true;16.666;390;195;psychophysics;928606;experimental_data;NULL;NULL;NULL;NULL;12_11_2020_16_17_37
70;30;2;sortStructureExp;bars;7;4949;saddlebrown;white,orange,black,green,saddlebrown,purple,pink;480,120,660,570,210,300,390;150,180,210,240,270,300,330;32;5;5;uet3pdw7hgm1hea;true;18.006;390;195;psychophysics;935568;experimental_data;NULL;NULL;NULL;NULL;12_11_2020_16_17_37
70;30;2;sortStructureExp;query;7;12698;saddlebrown;white,orange,black,green,saddlebrown,purple,pink;480,120,660,570,210,300,390;150,180,210,240,270,300,330;53;5;5;uet3pdw7hgm1hea;true;16.668;390;195;psychophysics;949271;experimental_data;NULL;NULL;NULL;NULL;12_11_2020_16_17_37
NULL;NULL;0;NULL;end_of_block;NULL;2536;NULL;NULL;NULL;NULL;32;NULL;NULL;uet3pdw7hgm1hea;NULL;NULL;NULL;NULL;html-keyboard-response;952814;experimental_data;952854;158.809;1;NULL;12_11_2020_16_17_37
71;27;3;noStructureCont;bars;6;5515;red;yellow,green,red,orange,purple,white;120,210,300,390,480,570;180,210,240,270,300,330;32;3;3;uet3pdw7hgm1hea;true;171.356;390;195;psychophysics;959335;experimental_data;NULL;NULL;NULL;NULL;12_11_2020_16_17_37
71;27;3;noStructureCont;query;6;4032;red;yellow,green,red,orange,purple,white;120,210,300,390,480,570;180,210,240,270,300,330;51;3;3;uet3pdw7hgm1hea;true;167.374;390;195;psychophysics;964373;experimental_data;NULL;NULL;NULL;NULL;12_11_2020_16_17_37
72;2;3;noStructureCont;bars;1;1478;saddlebrown;saddlebrown;390;300;32;1;1;uet3pdw7hgm1hea;true;166.675;390;195;psychophysics;967862;experimental_data;NULL;NULL;NULL;NULL;12_11_2020_16_17_37
72;2;3;noStructureCont;query;1;449;saddlebrown;saddlebrown;390;300;49;1;1;uet3pdw7hgm1hea;true;166.697;390;195;psychophysics;969317;experimental_data;NULL;NULL;NULL;NULL;12_11_2020_16_17_37
73;28;3;noStructureCont;bars;6;5539;pink;green,orange,white,blue,saddlebrown,pink;120,210,300,390,480,570;180,210,240,270,300,330;32;6;6;uet3pdw7hgm1hea;true;170.802;390;195;psychophysics;976864;experimental_data;NULL;NULL;NULL;NULL;12_11_2020_16_17_37
73;28;3;noStructureCont;query;6;5767;pink;green,orange,white,blue,saddlebrown,pink;120,210,300,390,480,570;180,210,240,270,300,330;54;6;6;uet3pdw7hgm1hea;true;166.674;390;195;psychophysics;983637;experimental_data;NULL;NULL;NULL;NULL;12_11_2020_16_17_37
74;5;3;noStructureCont;bars;2;5560;blue;white,blue;300,39;180,21;32;2;2;uet3pdw7hgm1hea;true;168.707;390;195;psychophysics;991208;experimental_data;NULL;NULL;NULL;NULL;12_11_2020_16_17_37
74;5;3;noStructureCont;query;2;3980;blue;white,blue;300,39;180,21;50;2;2;uet3pdw7hgm1hea;true;16.668;390;195;psychophysics;996199;experimental_data;NULL;NULL;NULL;NULL;12_11_2020_16_17_37
75;18;3;noStructureCont;bars;4;5231;red;black,red,orange,white;210,300,390,480;150,180,210,240;32;2;2;uet3pdw7hgm1hea;true;173.318;390;195;psychophysics;1003439;experimental_data;NULL;NULL;NULL;NULL;12_11_2020_16_17_37
75;18;3;noStructureCont;query;4;4224;red;black,red,orange,white;210,300,390,480;150,180,210,240;50;2;2;uet3pdw7hgm1hea;true;168.006;390;195;psychophysics;1008669;experimental_data;NULL;NULL;NULL;NULL;12_11_2020_16_17_37
76;33;3;noStructureCont;bars;7;4785;black;yellow,saddlebrown,white,orange,black,red,green;120,210,300,390,480,570,660;150,180,210,240,270,300,330;32;5;5;uet3pdw7hgm1hea;true;173.968;390;195;psychophysics;1015463;experimental_data;NULL;NULL;NULL;NULL;12_11_2020_16_17_37
76;33;3;noStructureCont;query;7;5370;black;yellow,saddlebrown,white,orange,black,red,green;120,210,300,390,480,570,660;150,180,210,240,270,300,330;53;5;5;uet3pdw7hgm1hea;true;167.722;390;195;psychophysics;1021845;experimental_data;NULL;NULL;NULL;NULL;12_11_2020_16_17_37
77;24;3;noStructureCont;bars;5;5880;white;white,pink,purple,green,saddlebrown;210,300,390,480,570;210,240,270,300,330;32;1;1;uet3pdw7hgm1hea;true;169.576;390;195;psychophysics;1029736;experimental_data;NULL;NULL;NULL;NULL;12_11_2020_16_17_37
77;24;3;noStructureCont;query;5;2934;white;white,pink,purple,green,saddlebrown;210,300,390,480,570;210,240,270,300,330;49;1;1;uet3pdw7hgm1hea;true;16.763;390;195;psychophysics;1033677;experimental_data;NULL;NULL;NULL;NULL;12_11_2020_16_17_37
78;34;3;noStructureCont;bars;7;10687;saddlebrown;white,red,saddlebrown,purple,blue,pink,orange;120,210,300,390,480,570,660;150,180,210,240,270,300,330;32;3;3;uet3pdw7hgm1hea;true;277.506;390;195;psychophysics;1046375;experimental_data;NULL;NULL;NULL;NULL;12_11_2020_16_17_37
78;34;3;noStructureCont;query;7;3229;saddlebrown;white,red,saddlebrown,purple,blue,pink,orange;120,210,300,390,480,570,660;150,180,210,240,270,300,330;51;3;3;uet3pdw7hgm1hea;true;171.107;390;195;psychophysics;1050613;experimental_data;NULL;NULL;NULL;NULL;12_11_2020_16_17_37
79;13;3;noStructureCont;bars;3;5637;saddlebrown;white,saddlebrown,green;300,390,480;270,300,330;32;2;2;uet3pdw7hgm1hea;true;180.568;390;195;psychophysics;1058264;experimental_data;NULL;NULL;NULL;NULL;12_11_2020_16_17_37
79;13;3;noStructureCont;query;3;3166;saddlebrown;white,saddlebrown,green;300,390,480;270,300,330;50;2;2;uet3pdw7hgm1hea;true;172.142;390;195;psychophysics;1062440;experimental_data;NULL;NULL;NULL;NULL;12_11_2020_16_17_37
80;19;3;noStructureCont;bars;4;4587;yellow;saddlebrown,purple,black,yellow;210,300,390,480;210,240,270,300;32;4;4;uet3pdw7hgm1hea;true;183.417;390;195;psychophysics;1069047;experimental_data;NULL;NULL;NULL;NULL;12_11_2020_16_17_37
80;19;3;noStructureCont;query;4;4016;yellow;saddlebrown,purple,black,yellow;210,300,390,480;210,240,270,300;52;4;4;uet3pdw7hgm1hea;true;16.949;390;195;psychophysics;1074077;experimental_data;NULL;NULL;NULL;NULL;12_11_2020_16_17_37
81;11;3;noStructureCont;bars;3;4870;blue;purple,blue,black;300,390,480;240,270,300;32;2;2;uet3pdw7hgm1hea;true;178.936;390;195;psychophysics;1080966;experimental_data;NULL;NULL;NULL;NULL;12_11_2020_16_17_37
81;11;3;noStructureCont;query;3;3532;blue;purple,blue,black;300,390,480;240,270,300;50;2;2;uet3pdw7hgm1hea;true;168.266;390;195;psychophysics;1085509;experimental_data;NULL;NULL;NULL;NULL;12_11_2020_16_17_37
82;16;3;noStructureCont;bars;4;4867;green;white,green,orange,black;210,300,390,480;150,180,210,240;32;2;2;uet3pdw7hgm1hea;true;181.038;390;195;psychophysics;1092397;experimental_data;NULL;NULL;NULL;NULL;12_11_2020_16_17_37
82;16;3;noStructureCont;query;4;3103;green;white,green,orange,black;210,300,390,480;150,180,210,240;50;2;2;uet3pdw7hgm1hea;true;175.151;390;195;psychophysics;1096508;experimental_data;NULL;NULL;NULL;NULL;12_11_2020_16_17_37
83;3;3;noStructureCont;bars;1;1760;yellow;yellow;390;300;32;1;1;uet3pdw7hgm1hea;true;166.672;390;195;psychophysics;1100278;experimental_data;NULL;NULL;NULL;NULL;12_11_2020_16_17_37
83;3;3;noStructureCont;query;1;784;yellow;yellow;390;300;49;1;1;uet3pdw7hgm1hea;true;166.668;390;195;psychophysics;1102068;experimental_data;NULL;NULL;NULL;NULL;12_11_2020_16_17_37
84;21;3;noStructureCont;bars;5;5741;white;yellow,orange,black,green,white;210,300,390,480,570;150,180,210,240,270;32;5;5;uet3pdw7hgm1hea;true;177.514;390;195;psychophysics;1109827;experimental_data;NULL;NULL;NULL;NULL;12_11_2020_16_17_37
84;21;3;noStructureCont;query;5;4722;white;yellow,orange,black,green,white;210,300,390,480,570;150,180,210,240,270;53;5;5;uet3pdw7hgm1hea;true;172.173;390;195;psychophysics;1115557;experimental_data;NULL;NULL;NULL;NULL;12_11_2020_16_17_37
85;14;3;noStructureCont;bars;3;4684;orange;orange,black,green;300,390,480;240,270,300;32;1;1;uet3pdw7hgm1hea;true;186.679;390;195;psychophysics;1122256;experimental_data;NULL;NULL;NULL;NULL;12_11_2020_16_17_37
85;14;3;noStructureCont;query;3;3870;orange;orange,black,green;300,390,480;240,270,300;49;1;1;uet3pdw7hgm1hea;true;177.431;390;195;psychophysics;1127135;experimental_data;NULL;NULL;NULL;NULL;12_11_2020_16_17_37
86;8;3;noStructureCont;bars;2;10114;orange;orange,purple;300,39;150,18;32;1;1;uet3pdw7hgm1hea;true;269.346;390;195;psychophysics;1139265;experimental_data;NULL;NULL;NULL;NULL;12_11_2020_16_17_37
86;8;3;noStructureCont;query;2;1007;orange;orange,purple;300,39;150,18;49;1;1;uet3pdw7hgm1hea;true;166.693;390;195;psychophysics;1141281;experimental_data;NULL;NULL;NULL;NULL;12_11_2020_16_17_37
87;29;3;noStructureCont;bars;6;4399;black;green,pink,black,saddlebrown,blue,white;120,210,300,390,480,570;180,210,240,270,300,330;32;3;3;uet3pdw7hgm1hea;true;176.754;390;195;psychophysics;1147700;experimental_data;NULL;NULL;NULL;NULL;12_11_2020_16_17_37
87;29;3;noStructureCont;query;6;3266;black;green,pink,black,saddlebrown,blue,white;120,210,300,390,480,570;180,210,240,270,300,330;51;3;3;uet3pdw7hgm1hea;true;174.746;390;195;psychophysics;1151973;experimental_data;NULL;NULL;NULL;NULL;12_11_2020_16_17_37
88;20;3;noStructureCont;bars;5;4799;white;pink,orange,white,green,red;210,300,390,480,570;150,180,210,240,270;32;3;3;uet3pdw7hgm1hea;true;181.252;390;195;psychophysics;1158782;experimental_data;NULL;NULL;NULL;NULL;12_11_2020_16_17_37
88;20;3;noStructureCont;query;5;4378;white;pink,orange,white,green,red;210,300,390,480,570;150,180,210,240,270;51;3;3;uet3pdw7hgm1hea;true;167.958;390;195;psychophysics;1164168;experimental_data;NULL;NULL;NULL;NULL;12_11_2020_16_17_37
89;12;3;noStructureCont;bars;3;4649;red;yellow,pink,red;300,390,480;270,300,330;32;3;3;uet3pdw7hgm1hea;true;177.495;390;195;psychophysics;1170836;experimental_data;NULL;NULL;NULL;NULL;12_11_2020_16_17_37
89;12;3;noStructureCont;query;3;3902;red;yellow,pink,red;300,390,480;270,300,330;51;3;3;uet3pdw7hgm1hea;true;172.626;390;195;psychophysics;1175749;experimental_data;NULL;NULL;NULL;NULL;12_11_2020_16_17_37
90;17;3;noStructureCont;bars;4;4876;blue;blue,purple,yellow,pink;210,300,390,480;210,240,270,300;32;1;1;uet3pdw7hgm1hea;true;175.698;390;195;psychophysics;1182644;experimental_data;NULL;NULL;NULL;NULL;12_11_2020_16_17_37
90;17;3;noStructureCont;query;4;3444;blue;blue,purple,yellow,pink;210,300,390,480;210,240,270,300;49;1;1;uet3pdw7hgm1hea;true;17.425;390;195;psychophysics;1187105;experimental_data;NULL;NULL;NULL;NULL;12_11_2020_16_17_37
91;15;3;noStructureCont;bars;4;7965;white;orange,yellow,white,purple;210,300,390,480;150,180,210,240;32;3;3;uet3pdw7hgm1hea;true;174.736;390;195;psychophysics;1197085;experimental_data;NULL;NULL;NULL;NULL;12_11_2020_16_17_37
91;15;3;noStructureCont;query;4;4168;white;orange,yellow,white,purple;210,300,390,480;150,180,210,240;51;3;3;uet3pdw7hgm1hea;true;172.928;390;195;psychophysics;1202261;experimental_data;NULL;NULL;NULL;NULL;12_11_2020_16_17_37
92;23;3;noStructureCont;bars;5;7353;purple;green,purple,pink,orange,black;210,300,390,480,570;180,210,240,270,300;32;2;2;uet3pdw7hgm1hea;true;17.931;390;195;psychophysics;1211628;experimental_data;NULL;NULL;NULL;NULL;12_11_2020_16_17_37
92;23;3;noStructureCont;query;5;3482;purple;green,purple,pink,orange,black;210,300,390,480,570;180,210,240,270,300;50;2;2;uet3pdw7hgm1hea;true;173.317;390;195;psychophysics;1216121;experimental_data;NULL;NULL;NULL;NULL;12_11_2020_16_17_37
93;31;3;noStructureCont;bars;7;5359;red;green,red,yellow,saddlebrown,orange,pink,white;120,210,300,390,480,570,660;150,180,210,240,270,300,330;32;2;2;uet3pdw7hgm1hea;true;173.147;390;195;psychophysics;1223491;experimental_data;NULL;NULL;NULL;NULL;12_11_2020_16_17_37
93;31;3;noStructureCont;query;7;3827;red;green,red,yellow,saddlebrown,orange,pink,white;120,210,300,390,480,570,660;150,180,210,240,270,300,330;50;2;2;uet3pdw7hgm1hea;true;172.682;390;195;psychophysics;1228350;experimental_data;NULL;NULL;NULL;NULL;12_11_2020_16_17_37
94;4;3;noStructureCont;bars;1;3875;blue;blue;390;300;32;1;1;uet3pdw7hgm1hea;true;167.403;390;195;psychophysics;1234237;experimental_data;NULL;NULL;NULL;NULL;12_11_2020_16_17_37
94;4;3;noStructureCont;query;1;864;blue;blue;390;300;49;1;1;uet3pdw7hgm1hea;true;166.678;390;195;psychophysics;1236108;experimental_data;NULL;NULL;NULL;NULL;12_11_2020_16_17_37
95;30;3;noStructureCont;bars;7;6027;blue;yellow,pink,blue,red,purple,white,black;120,210,300,390,480,570,660;150,180,210,240,270,300,330;32;3;3;uet3pdw7hgm1hea;true;172.904;390;195;psychophysics;1244142;experimental_data;NULL;NULL;NULL;NULL;12_11_2020_16_17_37
95;30;3;noStructureCont;query;7;3814;blue;yellow,pink,blue,red,purple,white,black;120,210,300,390,480,570,660;150,180,210,240,270,300,330;51;3;3;uet3pdw7hgm1hea;true;166.678;390;195;psychophysics;1248963;experimental_data;NULL;NULL;NULL;NULL;12_11_2020_16_17_37
96;22;3;noStructureCont;bars;5;6530;red;red,green,saddlebrown,white,black;210,300,390,480,570;180,210,240,270,300;32;1;1;uet3pdw7hgm1hea;true;172.405;390;195;psychophysics;1257509;experimental_data;NULL;NULL;NULL;NULL;12_11_2020_16_17_37
96;22;3;noStructureCont;query;5;2224;red;red,green,saddlebrown,white,black;210,300,390,480,570;180,210,240,270,300;49;1;1;uet3pdw7hgm1hea;true;170.533;390;195;psychophysics;1260740;experimental_data;NULL;NULL;NULL;NULL;12_11_2020_16_17_37
97;10;3;noStructureCont;bars;3;4725;green;yellow,green,purple;300,390,480;210,240,270;32;2;2;uet3pdw7hgm1hea;true;173.419;390;195;psychophysics;1267475;experimental_data;NULL;NULL;NULL;NULL;12_11_2020_16_17_37
97;10;3;noStructureCont;query;3;4332;green;yellow,green,purple;300,390,480;210,240,270;50;2;2;uet3pdw7hgm1hea;true;167.971;390;195;psychophysics;1272814;experimental_data;NULL;NULL;NULL;NULL;12_11_2020_16_17_37
98;32;3;noStructureCont;bars;7;5542;saddlebrown;black,orange,yellow,red,green,saddlebrown,purple;120,210,300,390,480,570,660;150,180,210,240,270,300,330;32;6;6;uet3pdw7hgm1hea;true;179.128;390;195;psychophysics;1280372;experimental_data;NULL;NULL;NULL;NULL;12_11_2020_16_17_37
98;32;3;noStructureCont;query;7;6656;saddlebrown;black,orange,yellow,red,green,saddlebrown,purple;120,210,300,390,480,570,660;150,180,210,240,270,300,330;54;6;6;uet3pdw7hgm1hea;true;167.943;390;195;psychophysics;1288038;experimental_data;NULL;NULL;NULL;NULL;12_11_2020_16_17_37
99;9;3;noStructureCont;bars;2;5275;saddlebrown;pink,saddlebrown;300,39;180,21;32;2;2;uet3pdw7hgm1hea;true;173.857;390;195;psychophysics;1295324;experimental_data;NULL;NULL;NULL;NULL;12_11_2020_16_17_37
99;9;3;noStructureCont;query;2;1756;saddlebrown;pink,saddlebrown;300,39;180,21;50;2;2;uet3pdw7hgm1hea;true;166.676;390;195;psychophysics;1298102;experimental_data;NULL;NULL;NULL;NULL;12_11_2020_16_17_37
100;7;3;noStructureCont;bars;2;4350;black;yellow,black;300,39;240,27;32;2;2;uet3pdw7hgm1hea;true;173.345;390;195;psychophysics;1304467;experimental_data;NULL;NULL;NULL;NULL;12_11_2020_16_17_37
100;7;3;noStructureCont;query;2;1234;black;yellow,black;300,39;240,27;50;2;2;uet3pdw7hgm1hea;true;166.701;390;195;psychophysics;1306707;experimental_data;NULL;NULL;NULL;NULL;12_11_2020_16_17_37
101;0;3;noStructureCont;bars;1;1925;red;red;390;180;32;1;1;uet3pdw7hgm1hea;true;17.268;390;195;psychophysics;1310645;experimental_data;NULL;NULL;NULL;NULL;12_11_2020_16_17_37
101;0;3;noStructureCont;query;1;994;red;red;390;180;49;1;1;uet3pdw7hgm1hea;true;166.673;390;195;psychophysics;1312651;experimental_data;NULL;NULL;NULL;NULL;12_11_2020_16_17_37
102;6;3;noStructureCont;bars;2;3973;black;green,black;300,39;210,24;32;2;2;uet3pdw7hgm1hea;true;172.448;390;195;psychophysics;1318644;experimental_data;NULL;NULL;NULL;NULL;12_11_2020_16_17_37
102;6;3;noStructureCont;query;2;3281;black;green,black;300,39;210,24;50;2;2;uet3pdw7hgm1hea;true;168.397;390;195;psychophysics;1322932;experimental_data;NULL;NULL;NULL;NULL;12_11_2020_16_17_37
103;1;3;noStructureCont;bars;1;902;pink;pink;390;300;32;1;1;uet3pdw7hgm1hea;true;166.658;390;195;psychophysics;1325843;experimental_data;NULL;NULL;NULL;NULL;12_11_2020_16_17_37
103;1;3;noStructureCont;query;1;351;pink;pink;390;300;49;1;1;uet3pdw7hgm1hea;true;16.667;390;195;psychophysics;1327202;experimental_data;NULL;NULL;NULL;NULL;12_11_2020_16_17_37
104;26;3;noStructureCont;bars;6;4094;yellow;purple,orange,black,yellow,pink,blue;120,210,300,390,480,570;180,210,240,270,300,330;32;4;4;uet3pdw7hgm1hea;true;175.258;390;195;psychophysics;1333312;experimental_data;NULL;NULL;NULL;NULL;12_11_2020_16_17_37
104;26;3;noStructureCont;query;6;4147;yellow;purple,orange,black,yellow,pink,blue;120,210,300,390,480,570;180,210,240,270,300,330;52;4;4;uet3pdw7hgm1hea;true;168.718;390;195;psychophysics;1338466;experimental_data;NULL;NULL;NULL;NULL;12_11_2020_16_17_37
105;25;3;noStructureCont;bars;6;3914;blue;green,purple,blue,saddlebrown,yellow,white;120,210,300,390,480,570;180,210,240,270,300,330;32;3;3;uet3pdw7hgm1hea;true;172.552;390;195;psychophysics;1344402;experimental_data;NULL;NULL;NULL;NULL;12_11_2020_16_17_37
105;25;3;noStructureCont;query;6;3122;blue;green,purple,blue,saddlebrown,yellow,white;120,210,300,390,480,570;180,210,240,270,300,330;51;3;3;uet3pdw7hgm1hea;true;167.566;390;195;psychophysics;1348532;experimental_data;NULL;NULL;NULL;NULL;12_11_2020_16_17_37
NULL;NULL;0;NULL;end_of_block;NULL;1825;NULL;NULL;NULL;NULL;32;NULL;NULL;uet3pdw7hgm1hea;NULL;NULL;NULL;NULL;html-keyboard-response;1351363;experimental_data;1351404;225.234;1;NULL;12_11_2020_16_17_37
106;25;4;queryStructureExp;bars;6;4018;red;black,saddlebrown,blue,yellow,orange,red;570,390,300,480,120,210;180,210,240,270,300,330;32;6;6;uet3pdw7hgm1hea;true;179.378;390;195;psychophysics;1356387;experimental_data;NULL;NULL;NULL;NULL;12_11_2020_16_17_37
106;25;4;queryStructureExp;query;6;7265;red;black,saddlebrown,blue,yellow,orange,red;570,390,300,480,120,210;180,210,240,270,300,330;54;6;6;uet3pdw7hgm1hea;true;168.611;390;195;psychophysics;1364659;experimental_data;NULL;NULL;NULL;NULL;12_11_2020_16_17_37
107;18;4;queryStructureExp;bars;4;5526;red;purple,saddlebrown,white,red;480,390,300,210;150,180,210,240;32;4;4;uet3pdw7hgm1hea;true;176.858;390;195;psychophysics;1372195;experimental_data;NULL;NULL;NULL;NULL;12_11_2020_16_17_37
107;18;4;queryStructureExp;query;4;3873;red;purple,saddlebrown,white,red;480,390,300,210;150,180,210,240;52;4;4;uet3pdw7hgm1hea;true;169.608;390;195;psychophysics;1377077;experimental_data;NULL;NULL;NULL;NULL;12_11_2020_16_17_37
