Trial_index;TrialID;Block;Conditions;Stimulus_type;Number_of_Bars;rt;Query_color;color_sequence;position_sequence;heights;key_press;Correct_Position;response_position;subject_id;correct;avg_frame_time;center_x;center_y;trial_type;time_elapsed;TrialType;timeMs;timeMin;score;reward;date
1;5;1;noStructureExp;bars;6;6781;pink;red,orange,saddlebrown,blue,pink,yellow;300,390,210,480,120,570;150,180,210,240,270,300;32;5;5;g63luoo50ve7yyn;true;166.667;390;195;psychophysics;167147;practice_trials;NULL;NULL;NULL;NULL;12_11_2020_10_14_22
1;5;1;noStructureExp;query;6;3577;pink;red,orange,saddlebrown,blue,pink,yellow;300,390,210,480,120,570;150,180,210,240,270,300;53;5;5;g63luoo50ve7yyn;true;166.681;390;195;psychophysics;171730;practice_trial;NULL;NULL;NULL;NULL;12_11_2020_10_14_22
2;4;1;noStructureExp;bars;5;7177;black;blue,purple,black,orange,green;480,210,390,570,300;210,240,270,300,330;32;3;3;g63luoo50ve7yyn;true;16.667;390;195;psychophysics;180915;practice_trials;NULL;NULL;NULL;NULL;12_11_2020_10_14_22
2;4;1;noStructureExp;query;5;3152;black;blue,purple,black,orange,green;480,210,390,570,300;210,240,270,300,330;51;3;3;g63luoo50ve7yyn;true;16.667;390;195;psychophysics;185075;practice_trial;NULL;NULL;NULL;NULL;12_11_2020_10_14_22
3;6;1;noStructureExp;bars;7;7854;saddlebrown;pink,green,purple,yellow,red,orange,saddlebrown;300,390,210,570,660,120,480;150,180,210,240,270,300,330;32;7;6;g63luoo50ve7yyn;false;166.664;390;195;psychophysics;194935;practice_trials;NULL;NULL;NULL;NULL;12_11_2020_10_14_22
3;6;1;noStructureExp;query;7;3835;saddlebrown;pink,green,purple,yellow,red,orange,saddlebrown;300,390,210,570,660,120,480;150,180,210,240,270,300,330;54;7;6;g63luoo50ve7yyn;false;166.665;390;195;psychophysics;199775;practice_trial;NULL;NULL;NULL;NULL;12_11_2020_10_14_22
4;3;1;noStructureExp;bars;4;4038;orange;blue,red,orange,purple;210,300,480,390;150,180,210,240;32;3;3;g63luoo50ve7yyn;true;166.673;390;195;psychophysics;205819;practice_trials;NULL;NULL;NULL;NULL;12_11_2020_10_14_22
4;3;1;noStructureExp;query;4;3106;orange;blue,red,orange,purple;210,300,480,390;150,180,210,240;51;3;3;g63luoo50ve7yyn;true;16.666;390;195;psychophysics;209931;practice_trial;NULL;NULL;NULL;NULL;12_11_2020_10_14_22
5;0;1;noStructureExp;bars;1;2126;yellow;yellow;390;270;32;1;1;g63luoo50ve7yyn;true;166.645;390;195;psychophysics;214065;practice_trials;NULL;NULL;NULL;NULL;12_11_2020_10_14_22
5;0;1;noStructureExp;query;1;2278;yellow;yellow;390;270;49;1;1;g63luoo50ve7yyn;true;166.663;390;195;psychophysics;217348;practice_trial;NULL;NULL;NULL;NULL;12_11_2020_10_14_22
6;1;1;noStructureExp;bars;2;1743;red;yellow,red;390,3;150,18;32;2;2;g63luoo50ve7yyn;true;166.653;390;195;psychophysics;221100;practice_trials;NULL;NULL;NULL;NULL;12_11_2020_10_14_22
6;1;1;noStructureExp;query;2;1207;red;yellow,red;390,3;150,18;50;2;2;g63luoo50ve7yyn;true;166.688;390;195;psychophysics;223312;practice_trial;NULL;NULL;NULL;NULL;12_11_2020_10_14_22
7;2;1;noStructureExp;bars;3;2735;red;orange,white,red;480,300,390;210,240,270;32;3;3;g63luoo50ve7yyn;true;166.661;390;195;psychophysics;228054;practice_trials;NULL;NULL;NULL;NULL;12_11_2020_10_14_22
7;2;1;noStructureExp;query;3;1763;red;orange,white,red;480,300,390;210,240,270;51;3;3;g63luoo50ve7yyn;true;166.673;390;195;psychophysics;230822;practice_trial;NULL;NULL;NULL;NULL;12_11_2020_10_14_22
8;2;2;noStructureCont;bars;3;1872;red;blue,black,red;300,390,480;210,240,270;32;3;3;g63luoo50ve7yyn;true;166.666;390;195;psychophysics;237757;practice_trials;NULL;NULL;NULL;NULL;12_11_2020_10_14_22
8;2;2;noStructureCont;query;3;1071;red;blue,black,red;300,390,480;210,240,270;51;3;3;g63luoo50ve7yyn;true;166.666;390;195;psychophysics;239833;practice_trial;NULL;NULL;NULL;NULL;12_11_2020_10_14_22
9;3;2;noStructureCont;bars;4;1909;red;blue,black,red,yellow;210,300,390,480;150,180,210,240;32;3;3;g63luoo50ve7yyn;true;166.659;390;195;psychophysics;243750;practice_trials;NULL;NULL;NULL;NULL;12_11_2020_10_14_22
9;3;2;noStructureCont;query;4;1133;red;blue,black,red,yellow;210,300,390,480;150,180,210,240;51;3;3;g63luoo50ve7yyn;true;16.668;390;195;psychophysics;245888;practice_trial;NULL;NULL;NULL;NULL;12_11_2020_10_14_22
10;4;2;noStructureCont;bars;5;3436;yellow;purple,white,yellow,green,orange;210,300,390,480,570;210,240,270,300,330;32;3;2;g63luoo50ve7yyn;false;166.671;390;195;psychophysics;251331;practice_trials;NULL;NULL;NULL;NULL;12_11_2020_10_14_22
10;4;2;noStructureCont;query;5;1411;yellow;purple,white,yellow,green,orange;210,300,390,480,570;210,240,270,300,330;50;3;2;g63luoo50ve7yyn;false;166.673;390;195;psychophysics;253748;practice_trial;NULL;NULL;NULL;NULL;12_11_2020_10_14_22
11;1;2;noStructureCont;bars;2;2140;white;green,white;300,39;150,18;32;2;2;g63luoo50ve7yyn;true;166.673;390;195;psychophysics;257896;practice_trials;NULL;NULL;NULL;NULL;12_11_2020_10_14_22
11;1;2;noStructureCont;query;2;1267;white;green,white;300,39;150,18;50;2;2;g63luoo50ve7yyn;true;166.656;390;195;psychophysics;260168;practice_trial;NULL;NULL;NULL;NULL;12_11_2020_10_14_22
12;0;2;noStructureCont;bars;1;1152;pink;pink;390;270;32;1;1;g63luoo50ve7yyn;true;166.649;390;195;psychophysics;263326;practice_trials;NULL;NULL;NULL;NULL;12_11_2020_10_14_22
12;0;2;noStructureCont;query;1;1051;pink;pink;390;270;49;1;1;g63luoo50ve7yyn;true;166.668;390;195;psychophysics;265382;practice_trial;NULL;NULL;NULL;NULL;12_11_2020_10_14_22
13;5;2;noStructureCont;bars;6;6214;purple;blue,black,orange,green,purple,pink;120,210,300,390,480,570;150,180,210,240,270,300;32;5;5;g63luoo50ve7yyn;true;166.666;390;195;psychophysics;273603;practice_trials;NULL;NULL;NULL;NULL;12_11_2020_10_14_22
13;5;2;noStructureCont;query;6;5574;purple;blue,black,orange,green,purple,pink;120,210,300,390,480,570;150,180,210,240,270,300;53;5;5;g63luoo50ve7yyn;true;166.665;390;195;psychophysics;280183;practice_trial;NULL;NULL;NULL;NULL;12_11_2020_10_14_22
14;6;2;noStructureCont;bars;7;6334;white;orange,red,green,saddlebrown,blue,pink,white;120,210,300,390,480,570,660;150,180,210,240,270,300,330;32;7;7;g63luoo50ve7yyn;true;166.666;390;195;psychophysics;288524;practice_trials;NULL;NULL;NULL;NULL;12_11_2020_10_14_22
14;6;2;noStructureCont;query;7;6420;white;orange,red,green,saddlebrown,blue,pink,white;120,210,300,390,480,570,660;150,180,210,240,270,300,330;55;7;7;g63luoo50ve7yyn;true;166.666;390;195;psychophysics;295951;practice_trial;NULL;NULL;NULL;NULL;12_11_2020_10_14_22
NULL;NULL;NULL;NULL;end_of_practice;NULL;3950;NULL;NULL;NULL;NULL;32;NULL;NULL;g63luoo50ve7yyn;NULL;NULL;NULL;NULL;html-keyboard-response;300905;practice_trials;300913;501.522;0.857143;NULL;12_11_2020_10_14_22
1;6;1;noStructureExp;bars;7;6769;orange;red,yellow,orange,black,pink,green,saddlebrown;480,390,210,120,570,660,300;150,180,210,240,270,300,330;32;3;4;5vuexcfs8r2v26t;false;167.037;390;195;psychophysics;250363;practice_trials;NULL;NULL;NULL;NULL;12_11_2020_10_20_51
1;6;1;noStructureExp;query;7;1907;orange;red,yellow,orange,black,pink,green,saddlebrown;480,390,210,120,570,660,300;150,180,210,240,270,300,330;52;3;4;5vuexcfs8r2v26t;false;169.626;390;195;psychophysics;253279;practice_trial;NULL;NULL;NULL;NULL;12_11_2020_10_20_51
2;0;1;noStructureExp;bars;1;2470;white;white;390;270;32;1;1;5vuexcfs8r2v26t;true;16.66;390;195;psychophysics;257775;practice_trials;NULL;NULL;NULL;NULL;12_11_2020_10_20_51
2;0;1;noStructureExp;query;1;4903;white;white;390;270;49;1;1;5vuexcfs8r2v26t;true;166.613;390;195;psychophysics;263697;practice_trial;NULL;NULL;NULL;NULL;12_11_2020_10_20_51
3;4;1;noStructureExp;bars;5;7605;white;white,purple,orange,yellow,blue;390,300,570,480,210;180,210,240,270,300;32;1;1;5vuexcfs8r2v26t;true;167.357;390;195;psychophysics;273320;practice_trials;NULL;NULL;NULL;NULL;12_11_2020_10_20_51
3;4;1;noStructureExp;query;5;1536;white;white,purple,orange,yellow,blue;390,300,570,480,210;180,210,240,270,300;49;1;1;5vuexcfs8r2v26t;true;168.456;390;195;psychophysics;275887;practice_trial;NULL;NULL;NULL;NULL;12_11_2020_10_20_51
4;1;1;noStructureExp;bars;2;3467;purple;purple,green;390,3;240,27;32;1;1;5vuexcfs8r2v26t;true;166.624;390;195;psychophysics;281378;practice_trials;NULL;NULL;NULL;NULL;12_11_2020_10_20_51
4;1;1;noStructureExp;query;2;1280;purple;purple,green;390,3;240,27;49;1;1;5vuexcfs8r2v26t;true;166.615;390;195;psychophysics;283669;practice_trial;NULL;NULL;NULL;NULL;12_11_2020_10_20_51
5;5;1;noStructureExp;bars;6;6893;green;green,blue,saddlebrown,white,yellow,black;570,390,480,300,120,210;150,180,210,240,270,300;32;1;2;5vuexcfs8r2v26t;false;167.438;390;195;psychophysics;292580;practice_trials;NULL;NULL;NULL;NULL;12_11_2020_10_20_51
5;5;1;noStructureExp;query;6;2326;green;green,blue,saddlebrown,white,yellow,black;570,390,480,300,120,210;150,180,210,240,270,300;50;1;2;5vuexcfs8r2v26t;false;16.663;390;195;psychophysics;295929;practice_trial;NULL;NULL;NULL;NULL;12_11_2020_10_20_51
6;3;1;noStructureExp;bars;4;3782;purple;blue,red,purple,orange;480,300,390,210;240,270,300,330;32;3;3;5vuexcfs8r2v26t;true;167.275;390;195;psychophysics;301724;practice_trials;NULL;NULL;NULL;NULL;12_11_2020_10_20_51
6;3;1;noStructureExp;query;4;5742;purple;blue,red,purple,orange;480,300,390,210;240,270,300,330;51;3;3;5vuexcfs8r2v26t;true;167.112;390;195;psychophysics;308476;practice_trial;NULL;NULL;NULL;NULL;12_11_2020_10_20_51
7;2;1;noStructureExp;bars;3;8392;black;yellow,saddlebrown,black;300,480,390;150,180,210;32;3;3;5vuexcfs8r2v26t;true;166.624;390;195;psychophysics;318890;practice_trials;NULL;NULL;NULL;NULL;12_11_2020_10_20_51
7;2;1;noStructureExp;query;3;1215;black;yellow,saddlebrown,black;300,480,390;150,180,210;51;3;3;5vuexcfs8r2v26t;true;166.627;390;195;psychophysics;321123;practice_trial;NULL;NULL;NULL;NULL;12_11_2020_10_20_51
8;4;2;noStructureCont;bars;5;5674;orange;orange,pink,purple,green,blue;210,300,390,480,570;180,210,240,270,300;32;1;1;5vuexcfs8r2v26t;true;166.621;390;195;psychophysics;330980;practice_trials;NULL;NULL;NULL;NULL;12_11_2020_10_20_51
8;4;2;noStructureCont;query;5;1061;orange;orange,pink,purple,green,blue;210,300,390,480,570;180,210,240,270,300;49;1;1;5vuexcfs8r2v26t;true;166.641;390;195;psychophysics;333049;practice_trial;NULL;NULL;NULL;NULL;12_11_2020_10_20_51
9;1;2;noStructureCont;bars;2;2814;blue;blue,pink;300,39;240,27;32;1;1;5vuexcfs8r2v26t;true;168.619;390;195;psychophysics;337885;practice_trials;NULL;NULL;NULL;NULL;12_11_2020_10_20_51
9;1;2;noStructureCont;query;2;753;blue;blue,pink;300,39;240,27;49;1;1;5vuexcfs8r2v26t;true;170.651;390;195;psychophysics;339675;practice_trial;NULL;NULL;NULL;NULL;12_11_2020_10_20_51
10;2;2;noStructureCont;bars;3;3423;pink;blue,orange,pink;300,390,480;150,180,210;32;3;3;5vuexcfs8r2v26t;true;16.663;390;195;psychophysics;345125;practice_trials;NULL;NULL;NULL;NULL;12_11_2020_10_20_51
10;2;2;noStructureCont;query;3;1317;pink;blue,orange,pink;300,390,480;150,180,210;51;3;3;5vuexcfs8r2v26t;true;16.886;390;195;psychophysics;347453;practice_trial;NULL;NULL;NULL;NULL;12_11_2020_10_20_51
11;0;2;noStructureCont;bars;1;2126;pink;pink;390;270;32;1;1;5vuexcfs8r2v26t;true;167.939;390;195;psychophysics;351601;practice_trials;NULL;NULL;NULL;NULL;12_11_2020_10_20_51
11;0;2;noStructureCont;query;1;328;pink;pink;390;270;49;1;1;5vuexcfs8r2v26t;true;166.526;390;195;psychophysics;352946;practice_trial;NULL;NULL;NULL;NULL;12_11_2020_10_20_51
12;5;2;noStructureCont;bars;6;15813;white;white,pink,black,blue,red,green;120,210,300,390,480,570;150,180,210,240,270,300;32;1;1;5vuexcfs8r2v26t;true;167.684;390;195;psychophysics;370782;practice_trials;NULL;NULL;NULL;NULL;12_11_2020_10_20_51
12;5;2;noStructureCont;query;6;1194;white;white,pink,black,blue,red,green;120,210,300,390,480,570;150,180,210,240,270,300;49;1;1;5vuexcfs8r2v26t;true;169.028;390;195;psychophysics;372988;practice_trial;NULL;NULL;NULL;NULL;12_11_2020_10_20_51
13;3;2;noStructureCont;bars;4;5388;black;red,blue,black,white;210,300,390,480;240,270,300,330;32;3;3;5vuexcfs8r2v26t;true;167.141;390;195;psychophysics;380410;practice_trials;NULL;NULL;NULL;NULL;12_11_2020_10_20_51
13;3;2;noStructureCont;query;4;2857;black;red,blue,black,white;210,300,390,480;240,270,300,330;51;3;3;5vuexcfs8r2v26t;true;169.622;390;195;psychophysics;384280;practice_trial;NULL;NULL;NULL;NULL;12_11_2020_10_20_51
14;6;2;noStructureCont;bars;7;11966;pink;white,red,pink,purple,black,blue,saddlebrown;120,210,300,390,480,570,660;150,180,210,240,270,300,330;32;3;3;5vuexcfs8r2v26t;true;167.321;390;195;psychophysics;398283;practice_trials;NULL;NULL;NULL;NULL;12_11_2020_10_20_51
14;6;2;noStructureCont;query;7;5733;pink;white,red,pink,purple,black,blue,saddlebrown;120,210,300,390,480,570,660;150,180,210,240,270,300,330;51;3;3;5vuexcfs8r2v26t;true;166.629;390;195;psychophysics;405037;practice_trial;NULL;NULL;NULL;NULL;12_11_2020_10_20_51
NULL;NULL;NULL;NULL;end_of_practice;NULL;3796;NULL;NULL;NULL;NULL;32;NULL;NULL;5vuexcfs8r2v26t;NULL;NULL;NULL;NULL;html-keyboard-response;409842;practice_trials;409861;683.102;0.857143;NULL;12_11_2020_10_20_51
1;0;1;noStructureExp;bars;1;4587;green;green;390;300;32;1;3;50gcxcf731yz2c7;false;16.666;390;195;psychophysics;220790;practice_trials;NULL;NULL;NULL;NULL;12_11_2020_20_58_8
1;0;1;noStructureExp;query;1;5518;green;green;390;300;51;1;3;50gcxcf731yz2c7;false;16.666;390;195;psychophysics;227316;practice_trial;NULL;NULL;NULL;NULL;12_11_2020_20_58_8
2;4;1;noStructureExp;bars;5;12167;black;yellow,black,white,saddlebrown,orange;570,210,300,480,390;150,180,210,240,270;32;2;4;50gcxcf731yz2c7;false;16.666;390;195;psychophysics;241499;practice_trials;NULL;NULL;NULL;NULL;12_11_2020_20_58_8
2;4;1;noStructureExp;query;5;2274;black;yellow,black,white,saddlebrown,orange;570,210,300,480,390;150,180,210,240,270;52;2;4;50gcxcf731yz2c7;false;16.666;390;195;psychophysics;244780;practice_trial;NULL;NULL;NULL;NULL;12_11_2020_20_58_8
3;5;1;noStructureExp;bars;6;20386;black;green,pink,purple,yellow,blue,black;120,570,390,300,210,480;180,210,240,270,300,330;32;6;4;50gcxcf731yz2c7;false;16.666;390;195;psychophysics;267177;practice_trials;NULL;NULL;NULL;NULL;12_11_2020_20_58_8
3;5;1;noStructureExp;query;6;4177;black;green,pink,purple,yellow,blue,black;120,570,390,300,210,480;180,210,240,270,300,330;52;6;4;50gcxcf731yz2c7;false;16.666;390;195;psychophysics;272360;practice_trial;NULL;NULL;NULL;NULL;12_11_2020_20_58_8
4;1;1;noStructureExp;bars;2;5955;red;orange,red;390,3;270,3;32;2;2;50gcxcf731yz2c7;true;16.666;390;195;psychophysics;280326;practice_trials;NULL;NULL;NULL;NULL;12_11_2020_20_58_8
4;1;1;noStructureExp;query;2;6425;red;orange,red;390,3;270,3;50;2;2;50gcxcf731yz2c7;true;16.666;390;195;psychophysics;287757;practice_trial;NULL;NULL;NULL;NULL;12_11_2020_20_58_8
5;3;1;noStructureExp;bars;4;10490;white;black,white,red,green;210,480,300,390;240,270,300,330;32;2;4;50gcxcf731yz2c7;false;16.666;390;195;psychophysics;300258;practice_trials;NULL;NULL;NULL;NULL;12_11_2020_20_58_8
5;3;1;noStructureExp;query;4;3520;white;black,white,red,green;210,480,300,390;240,270,300,330;52;2;4;50gcxcf731yz2c7;false;16.666;390;195;psychophysics;304787;practice_trial;NULL;NULL;NULL;NULL;12_11_2020_20_58_8
6;6;1;noStructureExp;bars;7;62484;pink;red,orange,white,green,blue,pink,black;390,120,570,660,210,300,480;150,180,210,240,270,300,330;32;6;5;50gcxcf731yz2c7;false;16.666;390;195;psychophysics;369283;practice_trials;NULL;NULL;NULL;NULL;12_11_2020_20_58_8
6;6;1;noStructureExp;query;7;2307;pink;red,orange,white,green,blue,pink,black;390,120,570,660,210,300,480;150,180,210,240,270,300,330;53;6;5;50gcxcf731yz2c7;false;16.666;390;195;psychophysics;372595;practice_trial;NULL;NULL;NULL;NULL;12_11_2020_20_58_8
7;2;1;noStructureExp;bars;3;9834;orange;saddlebrown,black,orange;390,300,480;210,240,270;32;3;3;50gcxcf731yz2c7;true;16.666;390;195;psychophysics;384440;practice_trials;NULL;NULL;NULL;NULL;12_11_2020_20_58_8
7;2;1;noStructureExp;query;3;2471;orange;saddlebrown,black,orange;390,300,480;210,240,270;51;3;3;50gcxcf731yz2c7;true;16.666;390;195;psychophysics;387919;practice_trial;NULL;NULL;NULL;NULL;12_11_2020_20_58_8
8;2;2;noStructureCont;bars;3;5544;white;blue,pink,white;300,390,480;210,240,270;32;3;3;50gcxcf731yz2c7;true;16.666;390;195;psychophysics;399629;practice_trials;NULL;NULL;NULL;NULL;12_11_2020_20_58_8
8;2;2;noStructureCont;query;3;3882;white;blue,pink,white;300,390,480;210,240,270;51;3;3;50gcxcf731yz2c7;true;16.666;390;195;psychophysics;404517;practice_trial;NULL;NULL;NULL;NULL;12_11_2020_20_58_8
9;3;2;noStructureCont;bars;4;4698;purple;white,purple,saddlebrown,pink;210,300,390,480;240,270,300,330;32;2;-16;50gcxcf731yz2c7;invalid response;16.666;390;195;psychophysics;411227;practice_trials;NULL;NULL;NULL;NULL;12_11_2020_20_58_8
9;3;2;noStructureCont;query;4;1816;purple;white,purple,saddlebrown,pink;210,300,390,480;240,270,300,330;32;2;-16;50gcxcf731yz2c7;invalid response;16.666;390;195;psychophysics;414050;practice_trial;NULL;NULL;NULL;NULL;12_11_2020_20_58_8
10;4;2;noStructureCont;bars;5;6786;purple;blue,purple,white,saddlebrown,yellow;210,300,390,480,570;150,180,210,240,270;32;2;3;50gcxcf731yz2c7;false;16.666;390;195;psychophysics;426850;practice_trials;NULL;NULL;NULL;NULL;12_11_2020_20_58_8
10;4;2;noStructureCont;query;5;475;purple;blue,purple,white,saddlebrown,yellow;210,300,390,480,570;150,180,210,240,270;51;2;3;50gcxcf731yz2c7;false;16.666;390;195;psychophysics;428338;practice_trial;NULL;NULL;NULL;NULL;12_11_2020_20_58_8
11;1;2;noStructureCont;bars;2;2685;yellow;pink,yellow;300,39;270,3;32;2;3;50gcxcf731yz2c7;false;16.666;390;195;psychophysics;433033;practice_trials;NULL;NULL;NULL;NULL;12_11_2020_20_58_8
11;1;2;noStructureCont;query;2;1066;yellow;pink,yellow;300,39;270,3;51;2;3;50gcxcf731yz2c7;false;16.666;390;195;psychophysics;435105;practice_trial;NULL;NULL;NULL;NULL;12_11_2020_20_58_8
12;5;2;noStructureCont;bars;6;7069;orange;blue,green,black,pink,yellow,orange;120,210,300,390,480,570;180,210,240,270,300,330;32;6;1;50gcxcf731yz2c7;false;16.666;390;195;psychophysics;444183;practice_trials;NULL;NULL;NULL;NULL;12_11_2020_20_58_8
12;5;2;noStructureCont;query;6;1050;orange;blue,green,black,pink,yellow,orange;120,210,300,390,480,570;180,210,240,270,300,330;49;6;1;50gcxcf731yz2c7;false;16.666;390;195;psychophysics;446239;practice_trial;NULL;NULL;NULL;NULL;12_11_2020_20_58_8
13;6;2;noStructureCont;bars;7;8446;pink;white,saddlebrown,yellow,purple,orange,pink,red;120,210,300,390,480,570,660;150,180,210,240,270,300,330;32;6;3;50gcxcf731yz2c7;false;16.666;390;195;psychophysics;456696;practice_trials;NULL;NULL;NULL;NULL;12_11_2020_20_58_8
13;6;2;noStructureCont;query;7;861;pink;white,saddlebrown,yellow,purple,orange,pink,red;120,210,300,390,480,570,660;150,180,210,240,270,300,330;51;6;3;50gcxcf731yz2c7;false;16.666;390;195;psychophysics;458565;practice_trial;NULL;NULL;NULL;NULL;12_11_2020_20_58_8
14;0;2;noStructureCont;bars;1;3719;purple;purple;390;300;32;1;1;50gcxcf731yz2c7;true;16.666;390;195;psychophysics;464300;practice_trials;NULL;NULL;NULL;NULL;12_11_2020_20_58_8
14;0;2;noStructureCont;query;1;1308;purple;purple;390;300;49;1;1;50gcxcf731yz2c7;true;16.666;390;195;psychophysics;466619;practice_trial;NULL;NULL;NULL;NULL;12_11_2020_20_58_8
NULL;NULL;NULL;NULL;end_of_practice;NULL;4003;NULL;NULL;NULL;NULL;32;NULL;NULL;50gcxcf731yz2c7;NULL;NULL;NULL;NULL;html-keyboard-response;471628;practice_trials;471638;786.063;0.285714;NULL;12_11_2020_20_58_8
1;6;1;noStructureExp;bars;7;7347;white;yellow,purple,green,blue,white,red,saddlebrown;570,120,210,480,390,660,300;150,180,210,240,270,300,330;32;5;4;us6grs84gamvlyg;false;173.382;390;195;psychophysics;1327812;practice_trials;NULL;NULL;NULL;NULL;12_11_2020_20_42_0
1;6;1;noStructureExp;query;7;2250;white;yellow,purple,green,blue,white,red,saddlebrown;570,120,210,480,390,660,300;150,180,210,240,270,300,330;52;5;4;us6grs84gamvlyg;false;225.552;390;195;psychophysics;1331081;practice_trial;NULL;NULL;NULL;NULL;12_11_2020_20_42_0
2;1;1;noStructureExp;bars;2;2792;yellow;saddlebrown,yellow;390,3;150,18;32;2;1;us6grs84gamvlyg;false;187.544;390;195;psychophysics;1335889;practice_trials;NULL;NULL;NULL;NULL;12_11_2020_20_42_0
2;1;1;noStructureExp;query;2;2051;yellow;saddlebrown,yellow;390,3;150,18;49;2;1;us6grs84gamvlyg;false;175.723;390;195;psychophysics;1338948;practice_trial;NULL;NULL;NULL;NULL;12_11_2020_20_42_0
3;5;1;noStructureExp;bars;6;30198;saddlebrown;green,black,yellow,purple,saddlebrown,white;300,210,570,120,390,480;150,180,210,240,270,300;32;5;4;us6grs84gamvlyg;false;204.463;390;195;psychophysics;1371160;practice_trials;NULL;NULL;NULL;NULL;12_11_2020_20_42_0
3;5;1;noStructureExp;query;6;2111;saddlebrown;green,black,yellow,purple,saddlebrown,white;300,210,570,120,390,480;150,180,210,240,270,300;52;5;4;us6grs84gamvlyg;false;171.206;390;195;psychophysics;1374285;practice_trial;NULL;NULL;NULL;NULL;12_11_2020_20_42_0
4;4;1;noStructureExp;bars;5;20055;black;saddlebrown,black,blue,yellow,white;300,570,480,210,390;180,210,240,270,300;32;2;2;us6grs84gamvlyg;true;170.786;390;195;psychophysics;1396353;practice_trials;NULL;NULL;NULL;NULL;12_11_2020_20_42_0
4;4;1;noStructureExp;query;5;1876;black;saddlebrown,black,blue,yellow,white;300,570,480,210,390;180,210,240,270,300;50;2;2;us6grs84gamvlyg;true;168.577;390;195;psychophysics;1399252;practice_trial;NULL;NULL;NULL;NULL;12_11_2020_20_42_0
5;2;1;noStructureExp;bars;3;27948;green;green,black,pink;390,480,300;180,210,240;32;1;1;us6grs84gamvlyg;true;188.489;390;195;psychophysics;1429233;practice_trials;NULL;NULL;NULL;NULL;12_11_2020_20_42_0
5;2;1;noStructureExp;query;3;1615;green;green,black,pink;390,480,300;180,210,240;49;1;1;us6grs84gamvlyg;true;182.089;390;195;psychophysics;1431871;practice_trial;NULL;NULL;NULL;NULL;12_11_2020_20_42_0
6;3;1;noStructureExp;bars;4;10489;black;saddlebrown,black,red,orange;390,480,300,210;240,270,300,330;32;2;2;us6grs84gamvlyg;true;170.619;390;195;psychophysics;1444371;practice_trials;NULL;NULL;NULL;NULL;12_11_2020_20_42_0
6;3;1;noStructureExp;query;4;1904;black;saddlebrown,black,red,orange;390,480,300,210;240,270,300,330;50;2;2;us6grs84gamvlyg;true;167.078;390;195;psychophysics;1447282;practice_trial;NULL;NULL;NULL;NULL;12_11_2020_20_42_0
7;0;1;noStructureExp;bars;1;1734;pink;pink;390;180;32;1;1;us6grs84gamvlyg;true;173.838;390;195;psychophysics;1451030;practice_trials;NULL;NULL;NULL;NULL;12_11_2020_20_42_0
7;0;1;noStructureExp;query;1;717;pink;pink;390;180;49;1;1;us6grs84gamvlyg;true;175.411;390;195;psychophysics;1452754;practice_trial;NULL;NULL;NULL;NULL;12_11_2020_20_42_0
8;0;2;noStructureCont;bars;1;1246;yellow;yellow;390;180;32;1;1;us6grs84gamvlyg;true;226.993;390;195;psychophysics;1459668;practice_trials;NULL;NULL;NULL;NULL;12_11_2020_20_42_0
8;0;2;noStructureCont;query;1;1288;yellow;yellow;390;180;49;1;1;us6grs84gamvlyg;true;198.426;390;195;psychophysics;1461967;practice_trial;NULL;NULL;NULL;NULL;12_11_2020_20_42_0
9;1;2;noStructureCont;bars;2;2804;blue;pink,blue;300,39;150,18;32;2;2;us6grs84gamvlyg;true;173.268;390;195;psychophysics;1466795;practice_trials;NULL;NULL;NULL;NULL;12_11_2020_20_42_0
9;1;2;noStructureCont;query;2;796;blue;pink,blue;300,39;150,18;50;2;2;us6grs84gamvlyg;true;230.967;390;195;psychophysics;1468598;practice_trial;NULL;NULL;NULL;NULL;12_11_2020_20_42_0
10;2;2;noStructureCont;bars;3;3932;yellow;yellow,pink,purple;300,390,480;180,210,240;32;1;1;us6grs84gamvlyg;true;206.871;390;195;psychophysics;1474549;practice_trials;NULL;NULL;NULL;NULL;12_11_2020_20_42_0
10;2;2;noStructureCont;query;3;1614;yellow;yellow,pink,purple;300,390,480;180,210,240;49;1;1;us6grs84gamvlyg;true;167.086;390;195;psychophysics;1477169;practice_trial;NULL;NULL;NULL;NULL;12_11_2020_20_42_0
11;4;2;noStructureCont;bars;5;15342;orange;purple,orange,pink,yellow,red;210,300,390,480,570;180,210,240,270,300;32;2;2;us6grs84gamvlyg;true;169.109;390;195;psychophysics;1494524;practice_trials;NULL;NULL;NULL;NULL;12_11_2020_20_42_0
11;4;2;noStructureCont;query;5;2199;orange;purple,orange,pink,yellow,red;210,300,390,480,570;180,210,240,270,300;50;2;2;us6grs84gamvlyg;true;175.175;390;195;psychophysics;1497734;practice_trial;NULL;NULL;NULL;NULL;12_11_2020_20_42_0
12;3;2;noStructureCont;bars;4;5311;blue;red,blue,black,yellow;210,300,390,480;240,270,300,330;32;2;2;us6grs84gamvlyg;true;21.102;390;195;psychophysics;1505057;practice_trials;NULL;NULL;NULL;NULL;12_11_2020_20_42_0
12;3;2;noStructureCont;query;4;1485;blue;red,blue,black,yellow;210,300,390,480;240,270,300,330;50;2;2;us6grs84gamvlyg;true;198.274;390;195;psychophysics;1507560;practice_trial;NULL;NULL;NULL;NULL;12_11_2020_20_42_0
13;6;2;noStructureCont;bars;7;14154;yellow;white,red,black,orange,yellow,blue,pink;120,210,300,390,480,570,660;150,180,210,240,270,300,330;32;5;5;us6grs84gamvlyg;true;201.118;390;195;psychophysics;1523726;practice_trials;NULL;NULL;NULL;NULL;12_11_2020_20_42_0
13;6;2;noStructureCont;query;7;2857;yellow;white,red,black,orange,yellow,blue,pink;120,210,300,390,480,570,660;150,180,210,240,270,300,330;53;5;5;us6grs84gamvlyg;true;172.139;390;195;psychophysics;1527593;practice_trial;NULL;NULL;NULL;NULL;12_11_2020_20_42_0
14;5;2;noStructureCont;bars;6;11262;green;white,saddlebrown,yellow,purple,green,orange;120,210,300,390,480,570;150,180,210,240,270,300;32;5;5;us6grs84gamvlyg;true;194.494;390;195;psychophysics;1540886;practice_trials;NULL;NULL;NULL;NULL;12_11_2020_20_42_0
14;5;2;noStructureCont;query;6;3436;green;white,saddlebrown,yellow,purple,green,orange;120,210,300,390,480,570;150,180,210,240,270,300;53;5;5;us6grs84gamvlyg;true;198.962;390;195;psychophysics;1545338;practice_trial;NULL;NULL;NULL;NULL;12_11_2020_20_42_0
NULL;NULL;NULL;NULL;end_of_practice;NULL;8915;NULL;NULL;NULL;NULL;32;NULL;NULL;us6grs84gamvlyg;NULL;NULL;NULL;NULL;html-keyboard-response;1555260;practice_trials;1555279;259.213;0.785714;NULL;12_11_2020_20_42_0
1;1;1;noStructureExp;bars;2;3084;saddlebrown;saddlebrown,green;300,39;240,27;32;1;1;q0g32jefcy9uusg;true;250.846;390;195;psychophysics;28371;practice_trials;NULL;NULL;NULL;NULL;12_11_2020_21_10_22
1;1;1;noStructureExp;query;2;1086;saddlebrown;saddlebrown,green;300,39;240,27;49;1;1;q0g32jefcy9uusg;true;250.899;390;195;psychophysics;30465;practice_trial;NULL;NULL;NULL;NULL;12_11_2020_21_10_22
2;5;1;noStructureExp;bars;6;1339;orange;pink,orange,red,white,blue,purple;300,210,480,390,570,120;150,180,210,240,270,300;32;2;4;q0g32jefcy9uusg;false;25.081;390;195;psychophysics;33816;practice_trials;NULL;NULL;NULL;NULL;12_11_2020_21_10_22
2;5;1;noStructureExp;query;6;1113;orange;pink,orange,red,white,blue,purple;300,210,480,390,570,120;150,180,210,240,270,300;52;2;4;q0g32jefcy9uusg;false;250.781;390;195;psychophysics;35936;practice_trial;NULL;NULL;NULL;NULL;12_11_2020_21_10_22
3;2;1;noStructureExp;bars;3;2798;orange;red,orange,green;480,300,390;240,270,300;32;2;2;q0g32jefcy9uusg;true;250.837;390;195;psychophysics;40744;practice_trials;NULL;NULL;NULL;NULL;12_11_2020_21_10_22
3;2;1;noStructureExp;query;3;1081;orange;red,orange,green;480,300,390;240,270,300;50;2;2;q0g32jefcy9uusg;true;250.808;390;195;psychophysics;42832;practice_trial;NULL;NULL;NULL;NULL;12_11_2020_21_10_22
4;6;1;noStructureExp;bars;7;1630;yellow;orange,blue,yellow,purple,saddlebrown,red,white;570,210,660,480,120,300,390;150,180,210,240,270,300,330;32;3;6;q0g32jefcy9uusg;false;250.843;390;195;psychophysics;46471;practice_trials;NULL;NULL;NULL;NULL;12_11_2020_21_10_22
4;6;1;noStructureExp;query;7;1457;yellow;orange,blue,yellow,purple,saddlebrown,red,white;570,210,660,480,120,300,390;150,180,210,240,270,300,330;54;3;6;q0g32jefcy9uusg;false;250.816;390;195;psychophysics;48943;practice_trial;NULL;NULL;NULL;NULL;12_11_2020_21_10_22
5;3;1;noStructureExp;bars;4;3453;green;purple,pink,orange,green;300,390,480,210;180,210,240,270;32;4;4;q0g32jefcy9uusg;true;250.826;390;195;psychophysics;54408;practice_trials;NULL;NULL;NULL;NULL;12_11_2020_21_10_22
5;3;1;noStructureExp;query;4;1440;green;purple,pink,orange,green;300,390,480,210;180,210,240,270;52;4;4;q0g32jefcy9uusg;true;250.827;390;195;psychophysics;56855;practice_trial;NULL;NULL;NULL;NULL;12_11_2020_21_10_22
6;4;1;noStructureExp;bars;5;2079;yellow;blue,orange,pink,red,yellow;210,300,570,480,390;150,180,210,240,270;32;5;3;q0g32jefcy9uusg;false;250.821;390;195;psychophysics;60943;practice_trials;NULL;NULL;NULL;NULL;12_11_2020_21_10_22
6;4;1;noStructureExp;query;5;1169;yellow;blue,orange,pink,red,yellow;210,300,570,480,390;150,180,210,240,270;51;5;3;q0g32jefcy9uusg;false;25.083;390;195;psychophysics;63118;practice_trial;NULL;NULL;NULL;NULL;12_11_2020_21_10_22
7;0;1;noStructureExp;bars;1;1297;orange;orange;390;270;32;1;1;q0g32jefcy9uusg;true;250.842;390;195;psychophysics;66423;practice_trials;NULL;NULL;NULL;NULL;12_11_2020_21_10_22
7;0;1;noStructureExp;query;1;433;orange;orange;390;270;49;1;1;q0g32jefcy9uusg;true;250.886;390;195;psychophysics;67863;practice_trial;NULL;NULL;NULL;NULL;12_11_2020_21_10_22
8;5;2;noStructureCont;bars;6;1677;purple;orange,purple,green,saddlebrown,black,pink;120,210,300,390,480,570;150,180,210,240,270,300;32;2;3;q0g32jefcy9uusg;false;250.849;390;195;psychophysics;73240;practice_trials;NULL;NULL;NULL;NULL;12_11_2020_21_10_22
8;5;2;noStructureCont;query;6;1183;purple;orange,purple,green,saddlebrown,black,pink;120,210,300,390,480,570;150,180,210,240,270,300;51;2;3;q0g32jefcy9uusg;false;25.083;390;195;psychophysics;75432;practice_trial;NULL;NULL;NULL;NULL;12_11_2020_21_10_22
9;6;2;noStructureCont;bars;7;1887;yellow;blue,black,yellow,orange,saddlebrown,white,pink;120,210,300,390,480,570,660;150,180,210,240,270,300,330;32;3;5;q0g32jefcy9uusg;false;250.821;390;195;psychophysics;79327;practice_trials;NULL;NULL;NULL;NULL;12_11_2020_21_10_22
9;6;2;noStructureCont;query;7;1329;yellow;blue,black,yellow,orange,saddlebrown,white,pink;120,210,300,390,480,570,660;150,180,210,240,270,300,330;53;3;5;q0g32jefcy9uusg;false;250.825;390;195;psychophysics;81663;practice_trial;NULL;NULL;NULL;NULL;12_11_2020_21_10_22
10;1;2;noStructureCont;bars;2;1016;orange;orange,black;300,39;240,27;32;1;1;q0g32jefcy9uusg;true;250.817;390;195;psychophysics;84695;practice_trials;NULL;NULL;NULL;NULL;12_11_2020_21_10_22
10;1;2;noStructureCont;query;2;1090;orange;orange,black;300,39;240,27;49;1;1;q0g32jefcy9uusg;true;250.847;390;195;psychophysics;86791;practice_trial;NULL;NULL;NULL;NULL;12_11_2020_21_10_22
11;0;2;noStructureCont;bars;1;832;purple;purple;390;270;32;1;1;q0g32jefcy9uusg;true;250.873;390;195;psychophysics;89632;practice_trials;NULL;NULL;NULL;NULL;12_11_2020_21_10_22
11;0;2;noStructureCont;query;1;931;purple;purple;390;270;49;1;1;q0g32jefcy9uusg;true;250.841;390;195;psychophysics;91583;practice_trial;NULL;NULL;NULL;NULL;12_11_2020_21_10_22
12;4;2;noStructureCont;bars;5;1551;purple;pink,green,blue,white,purple;210,300,390,480,570;150,180,210,240,270;32;5;3;q0g32jefcy9uusg;false;250.828;390;195;psychophysics;95144;practice_trials;NULL;NULL;NULL;NULL;12_11_2020_21_10_22
12;4;2;noStructureCont;query;5;1100;purple;pink,green,blue,white,purple;210,300,390,480,570;150,180,210,240,270;51;5;3;q0g32jefcy9uusg;false;250.809;390;195;psychophysics;97250;practice_trial;NULL;NULL;NULL;NULL;12_11_2020_21_10_22
13;3;2;noStructureCont;bars;4;2029;yellow;blue,green,pink,yellow;210,300,390,480;180,210,240,270;32;4;4;q0g32jefcy9uusg;true;250.823;390;195;psychophysics;101288;practice_trials;NULL;NULL;NULL;NULL;12_11_2020_21_10_22
13;3;2;noStructureCont;query;4;1136;yellow;blue,green,pink,yellow;210,300,390,480;180,210,240,270;52;4;4;q0g32jefcy9uusg;true;250.804;390;195;psychophysics;103430;practice_trial;NULL;NULL;NULL;NULL;12_11_2020_21_10_22
14;2;2;noStructureCont;bars;3;1308;white;blue,white,saddlebrown;300,390,480;240,270,300;32;2;2;q0g32jefcy9uusg;true;250.824;390;195;psychophysics;106751;practice_trials;NULL;NULL;NULL;NULL;12_11_2020_21_10_22
14;2;2;noStructureCont;query;3;1024;white;blue,white,saddlebrown;300,390,480;240,270,300;50;2;2;q0g32jefcy9uusg;true;250.844;390;195;psychophysics;108784;practice_trial;NULL;NULL;NULL;NULL;12_11_2020_21_10_22
NULL;NULL;NULL;NULL;end_of_practice;NULL;2128;NULL;NULL;NULL;NULL;32;NULL;NULL;q0g32jefcy9uusg;NULL;NULL;NULL;NULL;html-keyboard-response;111919;practice_trials;111925;186.542;0.571429;NULL;12_11_2020_21_10_22
1;23;1;sortStructureExp;bars;5;3710;purple;red,black,purple,orange,green;570,390,210,300,480;150,180,210,240,270;32;3;3;g63luoo50ve7yyn;true;166.669;390;195;psychophysics;10570;experimental_data;NULL;NULL;NULL;NULL;12_11_2020_10_20_37
1;23;1;sortStructureExp;query;5;1946;purple;red,black,purple,orange,green;570,390,210,300,480;150,180,210,240,270;51;3;3;g63luoo50ve7yyn;true;166.669;390;195;psychophysics;13521;experimental_data;NULL;NULL;NULL;NULL;12_11_2020_10_20_37
2;28;1;sortStructureExp;bars;6;7238;pink;pink,orange,green,red,black,purple;480,570,300,210,120,390;150,180,210,240,270,300;32;1;1;g63luoo50ve7yyn;true;16.667;390;195;psychophysics;22768;experimental_data;NULL;NULL;NULL;NULL;12_11_2020_10_20_37
2;28;1;sortStructureExp;query;6;1207;pink;pink,orange,green,red,black,purple;480,570,300,210,120,390;150,180,210,240,270,300;49;1;1;g63luoo50ve7yyn;true;166.659;390;195;psychophysics;24980;experimental_data;NULL;NULL;NULL;NULL;12_11_2020_10_20_37
3;13;1;sortStructureExp;bars;3;1901;black;red,black,purple;480,390,300;270,300,330;32;2;2;g63luoo50ve7yyn;true;166.666;390;195;psychophysics;28888;experimental_data;NULL;NULL;NULL;NULL;12_11_2020_10_20_37
3;13;1;sortStructureExp;query;3;1123;black;red,black,purple;480,390,300;270,300,330;50;2;2;g63luoo50ve7yyn;true;166.653;390;195;psychophysics;31015;experimental_data;NULL;NULL;NULL;NULL;12_11_2020_10_20_37
4;32;1;sortStructureExp;bars;7;14696;white;yellow,red,black,purple,pink,saddlebrown,white;210,570,120,480,660,390,300;150,180,210,240,270,300,330;32;7;7;g63luoo50ve7yyn;true;166.668;390;195;psychophysics;47718;experimental_data;NULL;NULL;NULL;NULL;12_11_2020_10_20_37
4;32;1;sortStructureExp;query;7;3103;white;yellow,red,black,purple,pink,saddlebrown,white;210,570,120,480,660,390,300;150,180,210,240,270,300,330;55;7;7;g63luoo50ve7yyn;true;166.674;390;195;psychophysics;51826;experimental_data;NULL;NULL;NULL;NULL;12_11_2020_10_20_37
5;3;1;sortStructureExp;bars;1;1145;red;red;390;240;32;1;1;g63luoo50ve7yyn;true;166.678;390;195;psychophysics;54978;experimental_data;NULL;NULL;NULL;NULL;12_11_2020_10_20_37
5;3;1;sortStructureExp;query;1;1099;red;red;390;240;49;1;1;g63luoo50ve7yyn;true;166.651;390;195;psychophysics;57083;experimental_data;NULL;NULL;NULL;NULL;12_11_2020_10_20_37
6;30;1;sortStructureExp;bars;7;10450;green;green,blue,red,black,purple,yellow,pink;660,120,390,480,300,570,210;150,180,210,240,270,300,330;32;1;1;g63luoo50ve7yyn;true;166.662;390;195;psychophysics;69540;experimental_data;NULL;NULL;NULL;NULL;12_11_2020_10_20_37
6;30;1;sortStructureExp;query;7;931;green;green,blue,red,black,purple,yellow,pink;660,120,390,480,300,570,210;150,180,210,240,270,300,330;49;1;1;g63luoo50ve7yyn;true;16.667;390;195;psychophysics;71476;experimental_data;NULL;NULL;NULL;NULL;12_11_2020_10_20_37
7;26;1;sortStructureExp;bars;6;4843;red;green,red,black,purple,yellow,white;570,390,300,210,480,120;180,210,240,270,300,330;32;2;2;g63luoo50ve7yyn;true;166.669;390;195;psychophysics;78326;experimental_data;NULL;NULL;NULL;NULL;12_11_2020_10_20_37
7;26;1;sortStructureExp;query;6;1177;red;green,red,black,purple,yellow,white;570,390,300,210,480,120;180,210,240,270,300,330;50;2;2;g63luoo50ve7yyn;true;166.671;390;195;psychophysics;80509;experimental_data;NULL;NULL;NULL;NULL;12_11_2020_10_20_37
8;22;1;sortStructureExp;bars;5;6135;black;pink,red,black,purple,green;480,210,300,390,570;210,240,270,300,330;32;3;3;g63luoo50ve7yyn;true;166.668;390;195;psychophysics;88649;experimental_data;NULL;NULL;NULL;NULL;12_11_2020_10_20_37
8;22;1;sortStructureExp;query;5;2177;black;pink,red,black,purple,green;480,210,300,390,570;210,240,270,300,330;51;3;3;g63luoo50ve7yyn;true;16.667;390;195;psychophysics;91832;experimental_data;NULL;NULL;NULL;NULL;12_11_2020_10_20_37
9;16;1;sortStructureExp;bars;4;2302;white;red,black,purple,white;480,390,210,300;180,210,240,270;32;4;4;g63luoo50ve7yyn;true;166.677;390;195;psychophysics;96140;experimental_data;NULL;NULL;NULL;NULL;12_11_2020_10_20_37
9;16;1;sortStructureExp;query;4;1451;white;red,black,purple,white;480,390,210,300;180,210,240,270;52;4;4;g63luoo50ve7yyn;true;166.664;390;195;psychophysics;98597;experimental_data;NULL;NULL;NULL;NULL;12_11_2020_10_20_37
10;8;1;sortStructureExp;bars;2;1575;red;red,black;390,3;180,21;32;1;1;g63luoo50ve7yyn;true;166.669;390;195;psychophysics;102180;experimental_data;NULL;NULL;NULL;NULL;12_11_2020_10_20_37
10;8;1;sortStructureExp;query;2;661;red;red,black;390,3;180,21;49;1;1;g63luoo50ve7yyn;true;166.647;390;195;psychophysics;103846;experimental_data;NULL;NULL;NULL;NULL;12_11_2020_10_20_37
11;31;1;sortStructureExp;bars;7;11916;purple;blue,saddlebrown,green,red,black,purple,pink;120,570,300,210,660,480,390;150,180,210,240,270,300,330;32;6;6;g63luoo50ve7yyn;true;166.665;390;195;psychophysics;117768;experimental_data;NULL;NULL;NULL;NULL;12_11_2020_10_20_37
11;31;1;sortStructureExp;query;7;3151;purple;blue,saddlebrown,green,red,black,purple,pink;120,570,300,210,660,480,390;150,180,210,240,270,300,330;54;6;6;g63luoo50ve7yyn;true;166.671;390;195;psychophysics;121926;experimental_data;NULL;NULL;NULL;NULL;12_11_2020_10_20_37
12;21;1;sortStructureExp;bars;5;3788;red;yellow,red,black,purple,orange;210,390,570,480,300;150,180,210,240,270;32;2;2;g63luoo50ve7yyn;true;166.669;390;195;psychophysics;127721;experimental_data;NULL;NULL;NULL;NULL;12_11_2020_10_20_37
12;21;1;sortStructureExp;query;5;1110;red;yellow,red,black,purple,orange;210,390,570,480,300;150,180,210,240,270;50;2;2;g63luoo50ve7yyn;true;166.674;390;195;psychophysics;129838;experimental_data;NULL;NULL;NULL;NULL;12_11_2020_10_20_37
13;29;1;sortStructureExp;bars;6;6265;green;red,black,purple,pink,green,saddlebrown;120,480,390,570,210,300;180,210,240,270,300,330;32;5;5;g63luoo50ve7yyn;true;177.561;390;195;psychophysics;138109;experimental_data;NULL;NULL;NULL;NULL;12_11_2020_10_20_37
13;29;1;sortStructureExp;query;6;3224;green;red,black,purple,pink,green,saddlebrown;120,480,390,570,210,300;180,210,240,270,300,330;53;5;5;g63luoo50ve7yyn;true;166.662;390;195;psychophysics;142339;experimental_data;NULL;NULL;NULL;NULL;12_11_2020_10_20_37
14;5;1;sortStructureExp;bars;2;1020;black;red,black;300,39;150,18;32;2;2;g63luoo50ve7yyn;true;16.667;390;195;psychophysics;145370;experimental_data;NULL;NULL;NULL;NULL;12_11_2020_10_20_37
14;5;1;sortStructureExp;query;2;585;black;red,black;300,39;150,18;50;2;2;g63luoo50ve7yyn;true;166.727;390;195;psychophysics;146961;experimental_data;NULL;NULL;NULL;NULL;12_11_2020_10_20_37
15;2;1;sortStructureExp;bars;1;821;red;red;390;240;32;1;1;g63luoo50ve7yyn;true;166.649;390;195;psychophysics;149788;experimental_data;NULL;NULL;NULL;NULL;12_11_2020_10_20_37
15;2;1;sortStructureExp;query;1;428;red;red;390;240;49;1;1;g63luoo50ve7yyn;true;16.672;390;195;psychophysics;151220;experimental_data;NULL;NULL;NULL;NULL;12_11_2020_10_20_37
16;24;1;sortStructureExp;bars;5;4723;black;saddlebrown,orange,red,black,purple;480,390,300,570,210;210,240,270,300,330;32;4;3;g63luoo50ve7yyn;false;166.667;390;195;psychophysics;157951;experimental_data;NULL;NULL;NULL;NULL;12_11_2020_10_20_37
16;24;1;sortStructureExp;query;5;1976;black;saddlebrown,orange,red,black,purple;480,390,300,570,210;210,240,270,300,330;51;4;3;g63luoo50ve7yyn;false;166.673;390;195;psychophysics;160932;experimental_data;NULL;NULL;NULL;NULL;12_11_2020_10_20_37
17;19;1;sortStructureExp;bars;4;3813;red;orange,red,black,purple;390,210,300,480;210,240,270,300;32;2;2;g63luoo50ve7yyn;true;166.669;390;195;psychophysics;166752;experimental_data;NULL;NULL;NULL;NULL;12_11_2020_10_20_37
17;19;1;sortStructureExp;query;4;1277;red;orange,red,black,purple;390,210,300,480;210,240,270,300;50;2;2;g63luoo50ve7yyn;true;166.653;390;195;psychophysics;169035;experimental_data;NULL;NULL;NULL;NULL;12_11_2020_10_20_37
18;18;1;sortStructureExp;bars;4;2646;black;red,black,purple,blue;390,300,210,480;150,180,210,240;32;2;2;g63luoo50ve7yyn;true;166.687;390;195;psychophysics;173689;experimental_data;NULL;NULL;NULL;NULL;12_11_2020_10_20_37
18;18;1;sortStructureExp;query;4;1020;black;red,black,purple,blue;390,300,210,480;150,180,210,240;50;2;2;g63luoo50ve7yyn;true;166.621;390;195;psychophysics;175714;experimental_data;NULL;NULL;NULL;NULL;12_11_2020_10_20_37
19;0;1;sortStructureExp;bars;1;921;red;red;390;180;32;1;1;g63luoo50ve7yyn;true;166.678;390;195;psychophysics;178642;experimental_data;NULL;NULL;NULL;NULL;12_11_2020_10_20_37
19;0;1;sortStructureExp;query;1;450;red;red;390;180;49;1;1;g63luoo50ve7yyn;true;166.669;390;195;psychophysics;180099;experimental_data;NULL;NULL;NULL;NULL;12_11_2020_10_20_37
20;25;1;sortStructureExp;bars;6;6564;black;red,black,purple,pink,saddlebrown,yellow;570,300,480,120,390,210;180,210,240,270,300,330;32;2;2;g63luoo50ve7yyn;true;166.666;390;195;psychophysics;188671;experimental_data;NULL;NULL;NULL;NULL;12_11_2020_10_20_37
20;25;1;sortStructureExp;query;6;992;black;red,black,purple,pink,saddlebrown,yellow;570,300,480,120,390,210;180,210,240,270,300,330;50;2;2;g63luoo50ve7yyn;true;166.671;390;195;psychophysics;190669;experimental_data;NULL;NULL;NULL;NULL;12_11_2020_10_20_37
21;10;1;sortStructureExp;bars;3;1388;black;red,black,purple;390,300,480;210,240,270;32;2;2;g63luoo50ve7yyn;true;166.651;390;195;psychophysics;194065;experimental_data;NULL;NULL;NULL;NULL;12_11_2020_10_20_37
21;10;1;sortStructureExp;query;3;772;black;red,black,purple;390,300,480;210,240,270;50;2;2;g63luoo50ve7yyn;true;166.682;390;195;psychophysics;195843;experimental_data;NULL;NULL;NULL;NULL;12_11_2020_10_20_37
22;9;1;sortStructureExp;bars;2;971;red;red,black;300,39;210,24;32;1;1;g63luoo50ve7yyn;true;166.665;390;195;psychophysics;198820;experimental_data;NULL;NULL;NULL;NULL;12_11_2020_10_20_37
22;9;1;sortStructureExp;query;2;706;red;red,black;300,39;210,24;49;1;1;g63luoo50ve7yyn;true;16.669;390;195;psychophysics;200532;experimental_data;NULL;NULL;NULL;NULL;12_11_2020_10_20_37
23;34;1;sortStructureExp;bars;7;9126;purple;green,white,saddlebrown,pink,red,black,purple;660,570,210,120,300,480,390;150,180,210,240,270,300,330;32;7;6;g63luoo50ve7yyn;false;166.669;390;195;psychophysics;211666;experimental_data;NULL;NULL;NULL;NULL;12_11_2020_10_20_37
23;34;1;sortStructureExp;query;7;7978;purple;green,white,saddlebrown,pink,red,black,purple;660,570,210,120,300,480,390;150,180,210,240,270,300,330;54;7;6;g63luoo50ve7yyn;false;166.672;390;195;psychophysics;220649;experimental_data;NULL;NULL;NULL;NULL;12_11_2020_10_20_37
24;20;1;sortStructureExp;bars;5;4478;purple;pink,blue,red,black,purple;570,480,300,390,210;210,240,270,300,330;32;5;5;g63luoo50ve7yyn;true;166.662;390;195;psychophysics;227135;experimental_data;NULL;NULL;NULL;NULL;12_11_2020_10_20_37
24;20;1;sortStructureExp;query;5;4108;purple;pink,blue,red,black,purple;570,480,300,390,210;210,240,270,300,330;53;5;5;g63luoo50ve7yyn;true;16.667;390;195;psychophysics;232249;experimental_data;NULL;NULL;NULL;NULL;12_11_2020_10_20_37
25;6;1;sortStructureExp;bars;2;826;red;red,black;390,3;300,33;32;1;1;g63luoo50ve7yyn;true;16.667;390;195;psychophysics;235081;experimental_data;NULL;NULL;NULL;NULL;12_11_2020_10_20_37
25;6;1;sortStructureExp;query;2;582;red;red,black;390,3;300,33;49;1;1;g63luoo50ve7yyn;true;166.683;390;195;psychophysics;236668;experimental_data;NULL;NULL;NULL;NULL;12_11_2020_10_20_37
26;11;1;sortStructureExp;bars;3;1776;red;red,black,purple;300,390,480;270,300,330;32;1;1;g63luoo50ve7yyn;true;16.666;390;195;psychophysics;240450;experimental_data;NULL;NULL;NULL;NULL;12_11_2020_10_20_37
26;11;1;sortStructureExp;query;3;521;red;red,black,purple;300,390,480;270,300,330;49;1;1;g63luoo50ve7yyn;true;166.697;390;195;psychophysics;241976;experimental_data;NULL;NULL;NULL;NULL;12_11_2020_10_20_37
27;12;1;sortStructureExp;bars;3;1814;red;red,black,purple;480,300,390;210,240,270;32;1;1;g63luoo50ve7yyn;true;166.675;390;195;psychophysics;245805;experimental_data;NULL;NULL;NULL;NULL;12_11_2020_10_20_37
27;12;1;sortStructureExp;query;3;686;red;red,black,purple;480,300,390;210,240,270;49;1;1;g63luoo50ve7yyn;true;166.639;390;195;psychophysics;247496;experimental_data;NULL;NULL;NULL;NULL;12_11_2020_10_20_37
28;4;1;sortStructureExp;bars;1;756;red;red;390;210;32;1;1;g63luoo50ve7yyn;true;166.648;390;195;psychophysics;250258;experimental_data;NULL;NULL;NULL;NULL;12_11_2020_10_20_37
28;4;1;sortStructureExp;query;1;436;red;red;390;210;49;1;1;g63luoo50ve7yyn;true;166.681;390;195;psychophysics;251700;experimental_data;NULL;NULL;NULL;NULL;12_11_2020_10_20_37
29;15;1;sortStructureExp;bars;4;1937;white;red,black,purple,white;480,390,210,300;210,240,270,300;32;4;4;g63luoo50ve7yyn;true;166.666;390;195;psychophysics;255643;experimental_data;NULL;NULL;NULL;NULL;12_11_2020_10_20_37
29;15;1;sortStructureExp;query;4;999;white;red,black,purple,white;480,390,210,300;210,240,270,300;52;4;4;g63luoo50ve7yyn;true;166.622;390;195;psychophysics;257648;experimental_data;NULL;NULL;NULL;NULL;12_11_2020_10_20_37
30;17;1;sortStructureExp;bars;4;2249;yellow;red,black,purple,yellow;480,210,390,300;180,210,240,270;32;4;4;g63luoo50ve7yyn;true;166.674;390;195;psychophysics;261905;experimental_data;NULL;NULL;NULL;NULL;12_11_2020_10_20_37
30;17;1;sortStructureExp;query;4;620;yellow;red,black,purple,yellow;480,210,390,300;180,210,240,270;52;4;4;g63luoo50ve7yyn;true;166.653;390;195;psychophysics;263531;experimental_data;NULL;NULL;NULL;NULL;12_11_2020_10_20_37
31;7;1;sortStructureExp;bars;2;772;red;red,black;300,39;300,33;32;1;1;g63luoo50ve7yyn;true;166.694;390;195;psychophysics;266308;experimental_data;NULL;NULL;NULL;NULL;12_11_2020_10_20_37
31;7;1;sortStructureExp;query;2;606;red;red,black;300,39;300,33;49;1;1;g63luoo50ve7yyn;true;16.668;390;195;psychophysics;267919;experimental_data;NULL;NULL;NULL;NULL;12_11_2020_10_20_37
32;1;1;sortStructureExp;bars;1;825;red;red;390;180;32;1;1;g63luoo50ve7yyn;true;166.699;390;195;psychophysics;270751;experimental_data;NULL;NULL;NULL;NULL;12_11_2020_10_20_37
32;1;1;sortStructureExp;query;1;367;red;red;390;180;49;1;1;g63luoo50ve7yyn;true;166.727;390;195;psychophysics;272123;experimental_data;NULL;NULL;NULL;NULL;12_11_2020_10_20_37
33;14;1;sortStructureExp;bars;3;1201;purple;red,black,purple;390,300,480;150,180,210;32;3;3;g63luoo50ve7yyn;true;166.681;390;195;psychophysics;275331;experimental_data;NULL;NULL;NULL;NULL;12_11_2020_10_20_37
33;14;1;sortStructureExp;query;3;1102;purple;red,black,purple;390,300,480;150,180,210;51;3;3;g63luoo50ve7yyn;true;166.653;390;195;psychophysics;277437;experimental_data;NULL;NULL;NULL;NULL;12_11_2020_10_20_37
34;27;1;sortStructureExp;bars;6;7593;pink;saddlebrown,pink,red,black,purple,blue;570,120,480,300,390,210;180,210,240,270,300,330;32;2;2;g63luoo50ve7yyn;true;166.666;390;195;psychophysics;287035;experimental_data;NULL;NULL;NULL;NULL;12_11_2020_10_20_37
34;27;1;sortStructureExp;query;6;1186;pink;saddlebrown,pink,red,black,purple,blue;570,120,480,300,390,210;180,210,240,270,300,330;50;2;2;g63luoo50ve7yyn;true;166.667;390;195;psychophysics;289226;experimental_data;NULL;NULL;NULL;NULL;12_11_2020_10_20_37
35;33;1;sortStructureExp;bars;7;4999;saddlebrown;yellow,blue,red,black,purple,orange,saddlebrown;660,300,210,570,480,390,120;150,180,210,240,270,300,330;32;7;6;g63luoo50ve7yyn;false;166.672;390;195;psychophysics;296232;experimental_data;NULL;NULL;NULL;NULL;12_11_2020_10_20_37
35;33;1;sortStructureExp;query;7;5721;saddlebrown;yellow,blue,red,black,purple,orange,saddlebrown;660,300,210,570,480,390,120;150,180,210,240,270,300,330;54;7;6;g63luoo50ve7yyn;false;166.662;390;195;psychophysics;302958;experimental_data;NULL;NULL;NULL;NULL;12_11_2020_10_20_37
NULL;NULL;0;NULL;end_of_block;NULL;1922;NULL;NULL;NULL;NULL;32;NULL;NULL;g63luoo50ve7yyn;NULL;NULL;NULL;NULL;html-keyboard-response;305883;experimental_data;305899;509.832;0.914286;NULL;12_11_2020_10_20_37
36;32;2;queryStructureExp;bars;7;12938;saddlebrown;orange,yellow,red,pink,green,purple,saddlebrown;210,570,120,480,660,390,300;150,180,210,240,270,300,330;32;7;7;g63luoo50ve7yyn;true;166.665;390;195;psychophysics;319827;experimental_data;NULL;NULL;NULL;NULL;12_11_2020_10_20_37
36;32;2;queryStructureExp;query;7;3954;saddlebrown;orange,yellow,red,pink,green,purple,saddlebrown;210,570,120,480,660,390,300;150,180,210,240,270,300,330;55;7;7;g63luoo50ve7yyn;true;171.741;390;195;psychophysics;324786;experimental_data;NULL;NULL;NULL;NULL;12_11_2020_10_20_37
37;22;2;queryStructureExp;bars;5;4414;black;saddlebrown,green,red,pink,black;480,210,300,390,570;210,240,270,300,330;32;5;5;g63luoo50ve7yyn;true;166.667;390;195;psychophysics;331207;experimental_data;NULL;NULL;NULL;NULL;12_11_2020_10_20_37
37;22;2;queryStructureExp;query;5;3418;black;saddlebrown,green,red,pink,black;480,210,300,390,570;210,240,270,300,330;53;5;5;g63luoo50ve7yyn;true;166.668;390;195;psychophysics;335630;experimental_data;NULL;NULL;NULL;NULL;12_11_2020_10_20_37
38;31;2;queryStructureExp;bars;7;6502;purple;orange,pink,black,yellow,white,red,purple;120,570,300,210,660,480,390;150,180,210,240,270,300,330;32;7;7;g63luoo50ve7yyn;true;166.664;390;195;psychophysics;344138;experimental_data;NULL;NULL;NULL;NULL;12_11_2020_10_20_37
38;31;2;queryStructureExp;query;7;2818;purple;orange,pink,black,yellow,white,red,purple;120,570,300,210,660,480,390;150,180,210,240,270,300,330;55;7;7;g63luoo50ve7yyn;true;166.653;390;195;psychophysics;347961;experimental_data;NULL;NULL;NULL;NULL;12_11_2020_10_20_37
39;1;2;queryStructureExp;bars;1;735;purple;purple;390;180;32;1;1;g63luoo50ve7yyn;true;166.672;390;195;psychophysics;350705;experimental_data;NULL;NULL;NULL;NULL;12_11_2020_10_20_37
39;1;2;queryStructureExp;query;1;345;purple;purple;390;180;49;1;1;g63luoo50ve7yyn;true;166.654;390;195;psychophysics;352055;experimental_data;NULL;NULL;NULL;NULL;12_11_2020_10_20_37
40;24;2;queryStructureExp;bars;5;3184;green;yellow,orange,blue,black,green;480,390,300,570,210;210,240,270,300,330;32;5;5;g63luoo50ve7yyn;true;166.661;390;195;psychophysics;357245;experimental_data;NULL;NULL;NULL;NULL;12_11_2020_10_20_37
40;24;2;queryStructureExp;query;5;3659;green;yellow,orange,blue,black,green;480,390,300,570,210;210,240,270,300,330;53;5;5;g63luoo50ve7yyn;true;166.673;390;195;psychophysics;361909;experimental_data;NULL;NULL;NULL;NULL;12_11_2020_10_20_37
41;18;2;queryStructureExp;bars;4;1964;blue;green,yellow,black,blue;390,300,210,480;150,180,210,240;32;4;4;g63luoo50ve7yyn;true;166.664;390;195;psychophysics;365878;experimental_data;NULL;NULL;NULL;NULL;12_11_2020_10_20_37
41;18;2;queryStructureExp;query;4;1297;blue;green,yellow,black,blue;390,300,210,480;150,180,210,240;52;4;4;g63luoo50ve7yyn;true;166.656;390;195;psychophysics;368180;experimental_data;NULL;NULL;NULL;NULL;12_11_2020_10_20_37
42;26;2;queryStructureExp;bars;6;6635;black;saddlebrown,green,blue,orange,yellow,black;570,390,300,210,480,120;180,210,240,270,300,330;32;6;5;g63luoo50ve7yyn;false;166.661;390;195;psychophysics;376822;experimental_data;NULL;NULL;NULL;NULL;12_11_2020_10_20_37
42;26;2;queryStructureExp;query;6;4181;black;saddlebrown,green,blue,orange,yellow,black;570,390,300,210,480,120;180,210,240,270,300,330;53;6;5;g63luoo50ve7yyn;false;166.665;390;195;psychophysics;382007;experimental_data;NULL;NULL;NULL;NULL;12_11_2020_10_20_37
43;6;2;queryStructureExp;bars;2;1055;white;purple,white;390,3;300,33;32;2;1;g63luoo50ve7yyn;false;181.279;390;195;psychophysics;385070;experimental_data;NULL;NULL;NULL;NULL;12_11_2020_10_20_37
43;6;2;queryStructureExp;query;2;897;white;purple,white;390,3;300,33;49;2;1;g63luoo50ve7yyn;false;166.677;390;195;psychophysics;386972;experimental_data;NULL;NULL;NULL;NULL;12_11_2020_10_20_37
44;30;2;queryStructureExp;bars;7;8238;blue;purple,black,red,green,white,saddlebrown,blue;660,120,390,480,300,570,210;150,180,210,240,270,300,330;32;7;1;g63luoo50ve7yyn;false;166.673;390;195;psychophysics;397216;experimental_data;NULL;NULL;NULL;NULL;12_11_2020_10_20_37
44;30;2;queryStructureExp;query;7;4686;blue;purple,black,red,green,white,saddlebrown,blue;660,120,390,480,300,570,210;150,180,210,240,270,300,330;49;7;1;g63luoo50ve7yyn;false;166.663;390;195;psychophysics;402907;experimental_data;NULL;NULL;NULL;NULL;12_11_2020_10_20_37
45;21;2;queryStructureExp;bars;5;4319;green;saddlebrown,pink,black,purple,green;210,390,570,480,300;150,180,210,240,270;32;5;5;g63luoo50ve7yyn;true;166.672;390;195;psychophysics;409232;experimental_data;NULL;NULL;NULL;NULL;12_11_2020_10_20_37
45;21;2;queryStructureExp;query;5;3088;green;saddlebrown,pink,black,purple,green;210,390,570,480,300;150,180,210,240,270;53;5;5;g63luoo50ve7yyn;true;166.668;390;195;psychophysics;413325;experimental_data;NULL;NULL;NULL;NULL;12_11_2020_10_20_37
46;28;2;queryStructureExp;bars;6;4179;white;purple,black,red,blue,pink,white;480,570,300,210,120,390;150,180,210,240,270,300;32;6;2;g63luoo50ve7yyn;false;166.665;390;195;psychophysics;419511;experimental_data;NULL;NULL;NULL;NULL;12_11_2020_10_20_37
46;28;2;queryStructureExp;query;6;5105;white;purple,black,red,blue,pink,white;480,570,300,210,120,390;150,180,210,240,270,300;50;6;2;g63luoo50ve7yyn;false;166.669;390;195;psychophysics;425622;experimental_data;NULL;NULL;NULL;NULL;12_11_2020_10_20_37
47;13;2;queryStructureExp;bars;3;1234;saddlebrown;red,green,saddlebrown;480,390,300;270,300,330;32;3;3;g63luoo50ve7yyn;true;166.664;390;195;psychophysics;428864;experimental_data;NULL;NULL;NULL;NULL;12_11_2020_10_20_37
47;13;2;queryStructureExp;query;3;1400;saddlebrown;red,green,saddlebrown;480,390,300;270,300,330;51;3;3;g63luoo50ve7yyn;true;166.682;390;195;psychophysics;431272;experimental_data;NULL;NULL;NULL;NULL;12_11_2020_10_20_37
48;25;2;queryStructureExp;bars;6;6379;white;pink,purple,yellow,black,red,white;570,300,480,120,390,210;180,210,240,270,300,330;32;6;6;g63luoo50ve7yyn;true;167.105;390;195;psychophysics;439659;experimental_data;NULL;NULL;NULL;NULL;12_11_2020_10_20_37
48;25;2;queryStructureExp;query;6;3839;white;pink,purple,yellow,black,red,white;570,300,480,120,390,210;180,210,240,270,300,330;54;6;6;g63luoo50ve7yyn;true;166.666;390;195;psychophysics;444504;experimental_data;NULL;NULL;NULL;NULL;12_11_2020_10_20_37
49;10;2;queryStructureExp;bars;3;1607;blue;saddlebrown,red,blue;390,300,480;210,240,270;32;3;3;g63luoo50ve7yyn;true;166.653;390;195;psychophysics;448117;experimental_data;NULL;NULL;NULL;NULL;12_11_2020_10_20_37
49;10;2;queryStructureExp;query;3;1156;blue;saddlebrown,red,blue;390,300,480;210,240,270;51;3;3;g63luoo50ve7yyn;true;166.696;390;195;psychophysics;450279;experimental_data;NULL;NULL;NULL;NULL;12_11_2020_10_20_37
50;5;2;queryStructureExp;bars;2;1117;purple;orange,purple;300,39;150,18;32;2;2;g63luoo50ve7yyn;true;166.658;390;195;psychophysics;453402;experimental_data;NULL;NULL;NULL;NULL;12_11_2020_10_20_37
50;5;2;queryStructureExp;query;2;722;purple;orange,purple;300,39;150,18;50;2;2;g63luoo50ve7yyn;true;166.662;390;195;psychophysics;455129;experimental_data;NULL;NULL;NULL;NULL;12_11_2020_10_20_37
51;4;2;queryStructureExp;bars;1;1183;saddlebrown;saddlebrown;390;210;32;1;1;g63luoo50ve7yyn;true;166.662;390;195;psychophysics;458326;experimental_data;NULL;NULL;NULL;NULL;12_11_2020_10_20_37
51;4;2;queryStructureExp;query;1;402;saddlebrown;saddlebrown;390;210;49;1;1;g63luoo50ve7yyn;true;166.752;390;195;psychophysics;459733;experimental_data;NULL;NULL;NULL;NULL;12_11_2020_10_20_37
52;12;2;queryStructureExp;bars;3;2227;blue;saddlebrown,green,blue;480,300,390;210,240,270;32;3;3;g63luoo50ve7yyn;true;166.665;390;195;psychophysics;463967;experimental_data;NULL;NULL;NULL;NULL;12_11_2020_10_20_37
52;12;2;queryStructureExp;query;3;857;blue;saddlebrown,green,blue;480,300,390;210,240,270;51;3;3;g63luoo50ve7yyn;true;166.675;390;195;psychophysics;465830;experimental_data;NULL;NULL;NULL;NULL;12_11_2020_10_20_37
53;20;2;queryStructureExp;bars;5;3178;saddlebrown;pink,blue,orange,white,saddlebrown;570,480,300,390,210;210,240,270,300,330;32;5;5;g63luoo50ve7yyn;true;166.675;390;195;psychophysics;471014;experimental_data;NULL;NULL;NULL;NULL;12_11_2020_10_20_37
53;20;2;queryStructureExp;query;5;2813;saddlebrown;pink,blue,orange,white,saddlebrown;570,480,300,390,210;210,240,270,300,330;53;5;5;g63luoo50ve7yyn;true;166.668;390;195;psychophysics;474833;experimental_data;NULL;NULL;NULL;NULL;12_11_2020_10_20_37
54;15;2;queryStructureExp;bars;4;3325;yellow;blue,red,pink,yellow;480,390,210,300;210,240,270,300;32;4;4;g63luoo50ve7yyn;true;166.659;390;195;psychophysics;480164;experimental_data;NULL;NULL;NULL;NULL;12_11_2020_10_20_37
54;15;2;queryStructureExp;query;4;1400;yellow;blue,red,pink,yellow;480,390,210,300;210,240,270,300;52;4;4;g63luoo50ve7yyn;true;166.667;390;195;psychophysics;482575;experimental_data;NULL;NULL;NULL;NULL;12_11_2020_10_20_37
55;11;2;queryStructureExp;bars;3;1698;yellow;white,purple,yellow;300,390,480;270,300,330;32;3;3;g63luoo50ve7yyn;true;166.683;390;195;psychophysics;486279;experimental_data;NULL;NULL;NULL;NULL;12_11_2020_10_20_37
55;11;2;queryStructureExp;query;3;1121;yellow;white,purple,yellow;300,390,480;270,300,330;51;3;3;g63luoo50ve7yyn;true;166.677;390;195;psychophysics;488406;experimental_data;NULL;NULL;NULL;NULL;12_11_2020_10_20_37
56;16;2;queryStructureExp;bars;4;2288;orange;pink,saddlebrown,green,orange;480,390,210,300;180,210,240,270;32;4;4;g63luoo50ve7yyn;true;166.661;390;195;psychophysics;492700;experimental_data;NULL;NULL;NULL;NULL;12_11_2020_10_20_37
56;16;2;queryStructureExp;query;4;1597;orange;pink,saddlebrown,green,orange;480,390,210,300;180,210,240,270;52;4;4;g63luoo50ve7yyn;true;166.689;390;195;psychophysics;495303;experimental_data;NULL;NULL;NULL;NULL;12_11_2020_10_20_37
57;29;2;queryStructureExp;bars;6;7196;orange;green,pink,saddlebrown,blue,yellow,orange;120,480,390,570,210,300;180,210,240,270,300,330;32;6;6;g63luoo50ve7yyn;true;166.669;390;195;psychophysics;504507;experimental_data;NULL;NULL;NULL;NULL;12_11_2020_10_20_37
57;29;2;queryStructureExp;query;6;4095;orange;green,pink,saddlebrown,blue,yellow,orange;120,480,390,570,210,300;180,210,240,270,300,330;54;6;6;g63luoo50ve7yyn;true;187.313;390;195;psychophysics;509607;experimental_data;NULL;NULL;NULL;NULL;12_11_2020_10_20_37
58;0;2;queryStructureExp;bars;1;674;purple;purple;390;180;32;1;1;g63luoo50ve7yyn;true;166.667;390;195;psychophysics;512290;experimental_data;NULL;NULL;NULL;NULL;12_11_2020_10_20_37
58;0;2;queryStructureExp;query;1;340;purple;purple;390;180;49;1;1;g63luoo50ve7yyn;true;166.632;390;195;psychophysics;513636;experimental_data;NULL;NULL;NULL;NULL;12_11_2020_10_20_37
59;3;2;queryStructureExp;bars;1;707;white;white;390;240;32;1;1;g63luoo50ve7yyn;true;166.687;390;195;psychophysics;516349;experimental_data;NULL;NULL;NULL;NULL;12_11_2020_10_20_37
59;3;2;queryStructureExp;query;1;333;white;white;390;240;49;1;1;g63luoo50ve7yyn;true;166.693;390;195;psychophysics;517685;experimental_data;NULL;NULL;NULL;NULL;12_11_2020_10_20_37
60;9;2;queryStructureExp;bars;2;894;white;blue,white;300,39;210,24;32;2;2;g63luoo50ve7yyn;true;166.636;390;195;psychophysics;520587;experimental_data;NULL;NULL;NULL;NULL;12_11_2020_10_20_37
60;9;2;queryStructureExp;query;2;1115;white;blue,white;300,39;210,24;50;2;2;g63luoo50ve7yyn;true;166.692;390;195;psychophysics;522708;experimental_data;NULL;NULL;NULL;NULL;12_11_2020_10_20_37
61;34;2;queryStructureExp;bars;7;8617;saddlebrown;purple,red,pink,white,blue,black,saddlebrown;660,570,210,120,300,480,390;150,180,210,240,270,300,330;32;7;7;g63luoo50ve7yyn;true;166.669;390;195;psychophysics;533336;experimental_data;NULL;NULL;NULL;NULL;12_11_2020_10_20_37
61;34;2;queryStructureExp;query;7;4406;saddlebrown;purple,red,pink,white,blue,black,saddlebrown;660,570,210,120,300,480,390;150,180,210,240,270,300,330;55;7;7;g63luoo50ve7yyn;true;166.665;390;195;psychophysics;538745;experimental_data;NULL;NULL;NULL;NULL;12_11_2020_10_20_37
62;27;2;queryStructureExp;bars;6;7845;saddlebrown;blue,black,red,pink,white,saddlebrown;570,120,480,300,390,210;180,210,240,270,300,330;32;6;6;g63luoo50ve7yyn;true;166.664;390;195;psychophysics;548596;experimental_data;NULL;NULL;NULL;NULL;12_11_2020_10_20_37
62;27;2;queryStructureExp;query;6;3998;saddlebrown;blue,black,red,pink,white,saddlebrown;570,120,480,300,390,210;180,210,240,270,300,330;54;6;6;g63luoo50ve7yyn;true;166.662;390;195;psychophysics;553599;experimental_data;NULL;NULL;NULL;NULL;12_11_2020_10_20_37
63;17;2;queryStructureExp;bars;4;2583;orange;green,saddlebrown,black,orange;480,210,390,300;180,210,240,270;32;4;4;g63luoo50ve7yyn;true;166.682;390;195;psychophysics;558190;experimental_data;NULL;NULL;NULL;NULL;12_11_2020_10_20_37
63;17;2;queryStructureExp;query;4;1177;orange;green,saddlebrown,black,orange;480,210,390,300;180,210,240,270;52;4;4;g63luoo50ve7yyn;true;166.657;390;195;psychophysics;560372;experimental_data;NULL;NULL;NULL;NULL;12_11_2020_10_20_37
64;14;2;queryStructureExp;bars;3;1910;blue;yellow,red,blue;390,300,480;150,180,210;32;3;3;g63luoo50ve7yyn;true;16.669;390;195;psychophysics;564290;experimental_data;NULL;NULL;NULL;NULL;12_11_2020_10_20_37
64;14;2;queryStructureExp;query;3;978;blue;yellow,red,blue;390,300,480;150,180,210;51;3;3;g63luoo50ve7yyn;true;166.671;390;195;psychophysics;566282;experimental_data;NULL;NULL;NULL;NULL;12_11_2020_10_20_37
65;19;2;queryStructureExp;bars;4;3039;white;yellow,green,saddlebrown,white;390,210,300,480;210,240,270,300;32;4;4;g63luoo50ve7yyn;true;179.496;390;195;psychophysics;571327;experimental_data;NULL;NULL;NULL;NULL;12_11_2020_10_20_37
65;19;2;queryStructureExp;query;4;2171;white;yellow,green,saddlebrown,white;390,210,300,480;210,240,270,300;52;4;4;g63luoo50ve7yyn;true;166.657;390;195;psychophysics;574504;experimental_data;NULL;NULL;NULL;NULL;12_11_2020_10_20_37
66;23;2;queryStructureExp;bars;5;2614;green;yellow,black,white,pink,green;570,390,210,300,480;150,180,210,240,270;32;5;5;g63luoo50ve7yyn;true;166.666;390;195;psychophysics;579125;experimental_data;NULL;NULL;NULL;NULL;12_11_2020_10_20_37
66;23;2;queryStructureExp;query;5;2674;green;yellow,black,white,pink,green;570,390,210,300,480;150,180,210,240,270;53;5;5;g63luoo50ve7yyn;true;16.666;390;195;psychophysics;582803;experimental_data;NULL;NULL;NULL;NULL;12_11_2020_10_20_37
67;33;2;queryStructureExp;bars;7;5275;purple;green,pink,white,yellow,blue,black,purple;660,300,210,570,480,390,120;150,180,210,240,270,300,330;32;7;7;g63luoo50ve7yyn;true;16.667;390;195;psychophysics;590085;experimental_data;NULL;NULL;NULL;NULL;12_11_2020_10_20_37
67;33;2;queryStructureExp;query;7;4285;purple;green,pink,white,yellow,blue,black,purple;660,300,210,570,480,390,120;150,180,210,240,270,300,330;55;7;7;g63luoo50ve7yyn;true;166.662;390;195;psychophysics;595376;experimental_data;NULL;NULL;NULL;NULL;12_11_2020_10_20_37
68;2;2;queryStructureExp;bars;1;1020;yellow;yellow;390;240;32;1;1;g63luoo50ve7yyn;true;166.656;390;195;psychophysics;598403;experimental_data;NULL;NULL;NULL;NULL;12_11_2020_10_20_37
68;2;2;queryStructureExp;query;1;349;yellow;yellow;390;240;49;1;1;g63luoo50ve7yyn;true;166.731;390;195;psychophysics;599764;experimental_data;NULL;NULL;NULL;NULL;12_11_2020_10_20_37
69;7;2;queryStructureExp;bars;2;1442;blue;black,blue;300,39;300,33;32;2;2;g63luoo50ve7yyn;true;166.664;390;195;psychophysics;603212;experimental_data;NULL;NULL;NULL;NULL;12_11_2020_10_20_37
69;7;2;queryStructureExp;query;2;611;blue;black,blue;300,39;300,33;50;2;2;g63luoo50ve7yyn;true;166.669;390;195;psychophysics;604829;experimental_data;NULL;NULL;NULL;NULL;12_11_2020_10_20_37
70;8;2;queryStructureExp;bars;2;760;red;blue,red;390,3;180,21;32;2;2;g63luoo50ve7yyn;true;166.666;390;195;psychophysics;607597;experimental_data;NULL;NULL;NULL;NULL;12_11_2020_10_20_37
70;8;2;queryStructureExp;query;2;797;red;blue,red;390,3;180,21;50;2;2;g63luoo50ve7yyn;true;166.661;390;195;psychophysics;609398;experimental_data;NULL;NULL;NULL;NULL;12_11_2020_10_20_37
NULL;NULL;0;NULL;end_of_block;NULL;1678;NULL;NULL;NULL;NULL;32;NULL;NULL;g63luoo50ve7yyn;NULL;NULL;NULL;NULL;html-keyboard-response;612081;experimental_data;612096;102.016;0.885714;NULL;12_11_2020_10_20_37
71;14;3;queryStructureCont;bars;3;2145;saddlebrown;green,blue,saddlebrown;300,390,480;150,180,210;32;3;3;g63luoo50ve7yyn;true;166.672;390;195;psychophysics;615229;experimental_data;NULL;NULL;NULL;NULL;12_11_2020_10_20_37
71;14;3;queryStructureCont;query;3;991;saddlebrown;green,blue,saddlebrown;300,390,480;150,180,210;51;3;3;g63luoo50ve7yyn;true;166.707;390;195;psychophysics;617226;experimental_data;NULL;NULL;NULL;NULL;12_11_2020_10_20_37
72;5;3;queryStructureCont;bars;2;1108;yellow;red,yellow;300,39;150,18;32;2;2;g63luoo50ve7yyn;true;16.666;390;195;psychophysics;620340;experimental_data;NULL;NULL;NULL;NULL;12_11_2020_10_20_37
72;5;3;queryStructureCont;query;2;620;yellow;red,yellow;300,39;150,18;50;2;2;g63luoo50ve7yyn;true;166.688;390;195;psychophysics;621966;experimental_data;NULL;NULL;NULL;NULL;12_11_2020_10_20_37
73;2;3;queryStructureCont;bars;1;558;purple;purple;390;240;32;1;1;g63luoo50ve7yyn;true;166.574;390;195;psychophysics;624533;experimental_data;NULL;NULL;NULL;NULL;12_11_2020_10_20_37
73;2;3;queryStructureCont;query;1;396;purple;purple;390;240;49;1;1;g63luoo50ve7yyn;true;166.565;390;195;psychophysics;625934;experimental_data;NULL;NULL;NULL;NULL;12_11_2020_10_20_37
74;12;3;queryStructureCont;bars;3;1667;blue;green,purple,blue;300,390,480;210,240,270;32;3;3;g63luoo50ve7yyn;true;166.654;390;195;psychophysics;629608;experimental_data;NULL;NULL;NULL;NULL;12_11_2020_10_20_37
74;12;3;queryStructureCont;query;3;522;blue;green,purple,blue;300,390,480;210,240,270;51;3;3;g63luoo50ve7yyn;true;172.473;390;195;psychophysics;631135;experimental_data;NULL;NULL;NULL;NULL;12_11_2020_10_20_37
75;26;3;queryStructureCont;bars;6;4172;green;blue,red,black,pink,purple,green;120,210,300,390,480,570;180,210,240,270,300,330;32;6;6;g63luoo50ve7yyn;true;166.668;390;195;psychophysics;637316;experimental_data;NULL;NULL;NULL;NULL;12_11_2020_10_20_37
75;26;3;queryStructureCont;query;6;3732;green;blue,red,black,pink,purple,green;120,210,300,390,480,570;180,210,240,270,300,330;54;6;6;g63luoo50ve7yyn;true;166.673;390;195;psychophysics;642053;experimental_data;NULL;NULL;NULL;NULL;12_11_2020_10_20_37
76;18;3;queryStructureCont;bars;4;1999;purple;orange,red,white,purple;210,300,390,480;150,180,210,240;32;4;4;g63luoo50ve7yyn;true;166.671;390;195;psychophysics;646059;experimental_data;NULL;NULL;NULL;NULL;12_11_2020_10_20_37
76;18;3;queryStructureCont;query;4;772;purple;orange,red,white,purple;210,300,390,480;150,180,210,240;52;4;4;g63luoo50ve7yyn;true;166.632;390;195;psychophysics;647836;experimental_data;NULL;NULL;NULL;NULL;12_11_2020_10_20_37
77;10;3;queryStructureCont;bars;3;2116;yellow;green,black,yellow;300,390,480;210,240,270;32;3;3;g63luoo50ve7yyn;true;166.674;390;195;psychophysics;651961;experimental_data;NULL;NULL;NULL;NULL;12_11_2020_10_20_37
77;10;3;queryStructureCont;query;3;718;yellow;green,black,yellow;300,390,480;210,240,270;51;3;3;g63luoo50ve7yyn;true;16.664;390;195;psychophysics;653684;experimental_data;NULL;NULL;NULL;NULL;12_11_2020_10_20_37
78;1;3;queryStructureCont;bars;1;629;pink;pink;390;180;32;1;1;g63luoo50ve7yyn;true;166.636;390;195;psychophysics;656320;experimental_data;NULL;NULL;NULL;NULL;12_11_2020_10_20_37
78;1;3;queryStructureCont;query;1;341;pink;pink;390;180;49;1;1;g63luoo50ve7yyn;true;166.588;390;195;psychophysics;657667;experimental_data;NULL;NULL;NULL;NULL;12_11_2020_10_20_37
79;0;3;queryStructureCont;bars;1;1187;blue;blue;390;180;32;1;1;g63luoo50ve7yyn;true;166.666;390;195;psychophysics;660862;experimental_data;NULL;NULL;NULL;NULL;12_11_2020_10_20_37
79;0;3;queryStructureCont;query;1;400;blue;blue;390;180;49;1;1;g63luoo50ve7yyn;true;166.723;390;195;psychophysics;662268;experimental_data;NULL;NULL;NULL;NULL;12_11_2020_10_20_37
80;24;3;queryStructureCont;bars;5;2782;blue;black,green,white,purple,blue;210,300,390,480,570;210,240,270,300,330;32;5;5;g63luoo50ve7yyn;true;166.667;390;195;psychophysics;667059;experimental_data;NULL;NULL;NULL;NULL;12_11_2020_10_20_37
80;24;3;queryStructureCont;query;5;3121;blue;black,green,white,purple,blue;210,300,390,480,570;210,240,270,300,330;53;5;5;g63luoo50ve7yyn;true;166.673;390;195;psychophysics;671184;experimental_data;NULL;NULL;NULL;NULL;12_11_2020_10_20_37
81;8;3;queryStructureCont;bars;2;811;blue;green,blue;300,39;180,21;32;2;2;g63luoo50ve7yyn;true;166.667;390;195;psychophysics;674002;experimental_data;NULL;NULL;NULL;NULL;12_11_2020_10_20_37
81;8;3;queryStructureCont;query;2;435;blue;green,blue;300,39;180,21;50;2;2;g63luoo50ve7yyn;true;166.673;390;195;psychophysics;675443;experimental_data;NULL;NULL;NULL;NULL;12_11_2020_10_20_37
82;33;3;queryStructureCont;bars;7;6272;pink;green,white,purple,yellow,saddlebrown,orange,pink;120,210,300,390,480,570,660;150,180,210,240,270,300,330;32;7;7;g63luoo50ve7yyn;true;16.667;390;195;psychophysics;683723;experimental_data;NULL;NULL;NULL;NULL;12_11_2020_10_20_37
82;33;3;queryStructureCont;query;7;3805;pink;green,white,purple,yellow,saddlebrown,orange,pink;120,210,300,390,480,570,660;150,180,210,240,270,300,330;55;7;7;g63luoo50ve7yyn;true;16.667;390;195;psychophysics;688534;experimental_data;NULL;NULL;NULL;NULL;12_11_2020_10_20_37
83;27;3;queryStructureCont;bars;6;4917;pink;saddlebrown,black,white,yellow,blue,pink;120,210,300,390,480,570;180,210,240,270,300,330;32;6;6;g63luoo50ve7yyn;true;166.672;390;195;psychophysics;695457;experimental_data;NULL;NULL;NULL;NULL;12_11_2020_10_20_37
83;27;3;queryStructureCont;query;6;3485;pink;saddlebrown,black,white,yellow,blue,pink;120,210,300,390,480,570;180,210,240,270,300,330;54;6;6;g63luoo50ve7yyn;true;166.666;390;195;psychophysics;699947;experimental_data;NULL;NULL;NULL;NULL;12_11_2020_10_20_37
84;4;3;queryStructureCont;bars;1;659;blue;blue;390;210;32;1;1;g63luoo50ve7yyn;true;166.699;390;195;psychophysics;702615;experimental_data;NULL;NULL;NULL;NULL;12_11_2020_10_20_37
84;4;3;queryStructureCont;query;1;322;blue;blue;390;210;49;1;1;g63luoo50ve7yyn;true;166.621;390;195;psychophysics;703942;experimental_data;NULL;NULL;NULL;NULL;12_11_2020_10_20_37
85;21;3;queryStructureCont;bars;5;4050;blue;yellow,saddlebrown,black,purple,blue;210,300,390,480,570;150,180,210,240,270;32;5;5;g63luoo50ve7yyn;true;166.671;390;195;psychophysics;709999;experimental_data;NULL;NULL;NULL;NULL;12_11_2020_10_20_37
85;21;3;queryStructureCont;query;5;2774;blue;yellow,saddlebrown,black,purple,blue;210,300,390,480,570;150,180,210,240,270;53;5;5;g63luoo50ve7yyn;true;166.669;390;195;psychophysics;713778;experimental_data;NULL;NULL;NULL;NULL;12_11_2020_10_20_37
86;15;3;queryStructureCont;bars;4;2202;red;blue,pink,saddlebrown,red;210,300,390,480;210,240,270,300;32;4;4;g63luoo50ve7yyn;true;166.655;390;195;psychophysics;717988;experimental_data;NULL;NULL;NULL;NULL;12_11_2020_10_20_37
86;15;3;queryStructureCont;query;4;522;red;blue,pink,saddlebrown,red;210,300,390,480;210,240,270,300;52;4;4;g63luoo50ve7yyn;true;166.725;390;195;psychophysics;719515;experimental_data;NULL;NULL;NULL;NULL;12_11_2020_10_20_37
87;9;3;queryStructureCont;bars;2;1101;pink;blue,pink;300,39;210,24;32;2;2;g63luoo50ve7yyn;true;166.665;390;195;psychophysics;722623;experimental_data;NULL;NULL;NULL;NULL;12_11_2020_10_20_37
87;9;3;queryStructureCont;query;2;428;pink;blue,pink;300,39;210,24;50;2;2;g63luoo50ve7yyn;true;166.577;390;195;psychophysics;724056;experimental_data;NULL;NULL;NULL;NULL;12_11_2020_10_20_37
88;13;3;queryStructureCont;bars;3;1902;red;yellow,orange,red;300,390,480;270,300,330;32;3;3;g63luoo50ve7yyn;true;166.659;390;195;psychophysics;727965;experimental_data;NULL;NULL;NULL;NULL;12_11_2020_10_20_37
88;13;3;queryStructureCont;query;3;488;red;yellow,orange,red;300,390,480;270,300,330;51;3;3;g63luoo50ve7yyn;true;166.693;390;195;psychophysics;729457;experimental_data;NULL;NULL;NULL;NULL;12_11_2020_10_20_37
89;25;3;queryStructureCont;bars;6;3886;saddlebrown;pink,yellow,black,white,red,saddlebrown;120,210,300,390,480,570;180,210,240,270,300,330;32;6;6;g63luoo50ve7yyn;true;166.667;390;195;psychophysics;735350;experimental_data;NULL;NULL;NULL;NULL;12_11_2020_10_20_37
89;25;3;queryStructureCont;query;6;2999;saddlebrown;pink,yellow,black,white,red,saddlebrown;120,210,300,390,480,570;180,210,240,270,300,330;54;6;6;g63luoo50ve7yyn;true;166.682;390;195;psychophysics;739354;experimental_data;NULL;NULL;NULL;NULL;12_11_2020_10_20_37
90;22;3;queryStructureCont;bars;5;3218;black;white,purple,yellow,pink,black;210,300,390,480,570;210,240,270,300,330;32;5;5;g63luoo50ve7yyn;true;166.659;390;195;psychophysics;744580;experimental_data;NULL;NULL;NULL;NULL;12_11_2020_10_20_37
90;22;3;queryStructureCont;query;5;2858;black;white,purple,yellow,pink,black;210,300,390,480,570;210,240,270,300,330;53;5;5;g63luoo50ve7yyn;true;166.659;390;195;psychophysics;748445;experimental_data;NULL;NULL;NULL;NULL;12_11_2020_10_20_37
91;3;3;queryStructureCont;bars;1;702;red;red;390;240;32;1;1;g63luoo50ve7yyn;true;166.681;390;195;psychophysics;751154;experimental_data;NULL;NULL;NULL;NULL;12_11_2020_10_20_37
91;3;3;queryStructureCont;query;1;387;red;red;390;240;49;1;1;g63luoo50ve7yyn;true;166.777;390;195;psychophysics;752545;experimental_data;NULL;NULL;NULL;NULL;12_11_2020_10_20_37
92;6;3;queryStructureCont;bars;2;945;white;saddlebrown,white;300,39;300,33;32;2;2;g63luoo50ve7yyn;true;16.666;390;195;psychophysics;755499;experimental_data;NULL;NULL;NULL;NULL;12_11_2020_10_20_37
92;6;3;queryStructureCont;query;2;432;white;saddlebrown,white;300,39;300,33;50;2;2;g63luoo50ve7yyn;true;166.722;390;195;psychophysics;756936;experimental_data;NULL;NULL;NULL;NULL;12_11_2020_10_20_37
93;34;3;queryStructureCont;bars;7;6392;red;black,pink,white,saddlebrown,purple,orange,red;120,210,300,390,480,570,660;150,180,210,240,270,300,330;32;7;7;g63luoo50ve7yyn;true;166.666;390;195;psychophysics;765335;experimental_data;NULL;NULL;NULL;NULL;12_11_2020_10_20_37
93;34;3;queryStructureCont;query;7;3332;red;black,pink,white,saddlebrown,purple,orange,red;120,210,300,390,480,570,660;150,180,210,240,270,300,330;55;7;7;g63luoo50ve7yyn;true;166.657;390;195;psychophysics;769673;experimental_data;NULL;NULL;NULL;NULL;12_11_2020_10_20_37
94;30;3;queryStructureCont;bars;7;7848;purple;yellow,green,pink,orange,black,saddlebrown,purple;120,210,300,390,480,570,660;150,180,210,240,270,300,330;32;7;7;g63luoo50ve7yyn;true;166.664;390;195;psychophysics;779529;experimental_data;NULL;NULL;NULL;NULL;12_11_2020_10_20_37
94;30;3;queryStructureCont;query;7;3172;purple;yellow,green,pink,orange,black,saddlebrown,purple;120,210,300,390,480,570,660;150,180,210,240,270,300,330;55;7;7;g63luoo50ve7yyn;true;167.557;390;195;psychophysics;783708;experimental_data;NULL;NULL;NULL;NULL;12_11_2020_10_20_37
95;29;3;queryStructureCont;bars;6;4697;yellow;black,orange,saddlebrown,green,red,yellow;120,210,300,390,480,570;180,210,240,270,300,330;32;6;6;g63luoo50ve7yyn;true;166.666;390;195;psychophysics;790411;experimental_data;NULL;NULL;NULL;NULL;12_11_2020_10_20_37
95;29;3;queryStructureCont;query;6;3438;yellow;black,orange,saddlebrown,green,red,yellow;120,210,300,390,480,570;180,210,240,270,300,330;54;6;6;g63luoo50ve7yyn;true;166.673;390;195;psychophysics;794854;experimental_data;NULL;NULL;NULL;NULL;12_11_2020_10_20_37
96;7;3;queryStructureCont;bars;2;1950;purple;saddlebrown,purple;300,39;300,33;32;2;2;g63luoo50ve7yyn;true;166.673;390;195;psychophysics;798813;experimental_data;NULL;NULL;NULL;NULL;12_11_2020_10_20_37
96;7;3;queryStructureCont;query;2;461;purple;saddlebrown,purple;300,39;300,33;50;2;2;g63luoo50ve7yyn;true;16.668;390;195;psychophysics;800279;experimental_data;NULL;NULL;NULL;NULL;12_11_2020_10_20_37
97;20;3;queryStructureCont;bars;5;3909;blue;pink,saddlebrown,purple,white,blue;210,300,390,480,570;210,240,270,300,330;32;5;5;g63luoo50ve7yyn;true;166.676;390;195;psychophysics;806196;experimental_data;NULL;NULL;NULL;NULL;12_11_2020_10_20_37
97;20;3;queryStructureCont;query;5;2352;blue;pink,saddlebrown,purple,white,blue;210,300,390,480,570;210,240,270,300,330;53;5;5;g63luoo50ve7yyn;true;166.666;390;195;psychophysics;809553;experimental_data;NULL;NULL;NULL;NULL;12_11_2020_10_20_37
98;32;3;queryStructureCont;bars;7;4330;blue;red,black,saddlebrown,green,yellow,pink,blue;120,210,300,390,480,570,660;150,180,210,240,270,300,330;32;7;7;g63luoo50ve7yyn;true;166.661;390;195;psychophysics;815890;experimental_data;NULL;NULL;NULL;NULL;12_11_2020_10_20_37
98;32;3;queryStructureCont;query;7;1132;blue;red,black,saddlebrown,green,yellow,pink,blue;120,210,300,390,480,570,660;150,180,210,240,270,300,330;55;7;7;g63luoo50ve7yyn;true;169.209;390;195;psychophysics;818028;experimental_data;NULL;NULL;NULL;NULL;12_11_2020_10_20_37
99;16;3;queryStructureCont;bars;4;2591;white;green,pink,saddlebrown,white;210,300,390,480;180,210,240,270;32;4;4;g63luoo50ve7yyn;true;166.662;390;195;psychophysics;822627;experimental_data;NULL;NULL;NULL;NULL;12_11_2020_10_20_37
99;16;3;queryStructureCont;query;4;1138;white;green,pink,saddlebrown,white;210,300,390,480;180,210,240,270;52;4;4;g63luoo50ve7yyn;true;166.663;390;195;psychophysics;824769;experimental_data;NULL;NULL;NULL;NULL;12_11_2020_10_20_37
100;31;3;queryStructureCont;bars;7;2327;purple;green,yellow,pink,blue,saddlebrown,black,purple;120,210,300,390,480,570,660;150,180,210,240,270,300,330;32;7;7;g63luoo50ve7yyn;true;16.668;390;195;psychophysics;829105;experimental_data;NULL;NULL;NULL;NULL;12_11_2020_10_20_37
100;31;3;queryStructureCont;query;7;1046;purple;green,yellow,pink,blue,saddlebrown,black,purple;120,210,300,390,480,570,660;150,180,210,240,270,300,330;55;7;7;g63luoo50ve7yyn;true;166.678;390;195;psychophysics;831157;experimental_data;NULL;NULL;NULL;NULL;12_11_2020_10_20_37
101;19;3;queryStructureCont;bars;4;1266;saddlebrown;white,red,blue,saddlebrown;210,300,390,480;210,240,270,300;32;4;4;g63luoo50ve7yyn;true;166.659;390;195;psychophysics;834429;experimental_data;NULL;NULL;NULL;NULL;12_11_2020_10_20_37
101;19;3;queryStructureCont;query;4;1038;saddlebrown;white,red,blue,saddlebrown;210,300,390,480;210,240,270,300;52;4;4;g63luoo50ve7yyn;true;166.667;390;195;psychophysics;836472;experimental_data;NULL;NULL;NULL;NULL;12_11_2020_10_20_37
102;23;3;queryStructureCont;bars;5;1210;blue;yellow,red,white,green,blue;210,300,390,480,570;150,180,210,240,270;32;5;5;g63luoo50ve7yyn;true;166.682;390;195;psychophysics;839696;experimental_data;NULL;NULL;NULL;NULL;12_11_2020_10_20_37
102;23;3;queryStructureCont;query;5;681;blue;yellow,red,white,green,blue;210,300,390,480,570;150,180,210,240,270;53;5;5;g63luoo50ve7yyn;true;166.687;390;195;psychophysics;841382;experimental_data;NULL;NULL;NULL;NULL;12_11_2020_10_20_37
103;28;3;queryStructureCont;bars;6;2118;green;black,pink,yellow,white,red,green;120,210,300,390,480,570;150,180,210,240,270,300;32;6;6;g63luoo50ve7yyn;true;166.676;390;195;psychophysics;845507;experimental_data;NULL;NULL;NULL;NULL;12_11_2020_10_20_37
103;28;3;queryStructureCont;query;6;1076;green;black,pink,yellow,white,red,green;120,210,300,390,480,570;150,180,210,240,270,300;54;6;6;g63luoo50ve7yyn;true;166.685;390;195;psychophysics;847589;experimental_data;NULL;NULL;NULL;NULL;12_11_2020_10_20_37
104;11;3;queryStructureCont;bars;3;863;white;green,orange,white;300,390,480;270,300,330;32;3;3;g63luoo50ve7yyn;true;166.689;390;195;psychophysics;850457;experimental_data;NULL;NULL;NULL;NULL;12_11_2020_10_20_37
104;11;3;queryStructureCont;query;3;620;white;green,orange,white;300,390,480;270,300,330;51;3;3;g63luoo50ve7yyn;true;166.742;390;195;psychophysics;852083;experimental_data;NULL;NULL;NULL;NULL;12_11_2020_10_20_37
105;17;3;queryStructureCont;bars;4;936;green;purple,black,red,green;210,300,390,480;180,210,240,270;32;4;4;g63luoo50ve7yyn;true;166.694;390;195;psychophysics;855026;experimental_data;NULL;NULL;NULL;NULL;12_11_2020_10_20_37
105;17;3;queryStructureCont;query;4;627;green;purple,black,red,green;210,300,390,480;180,210,240,270;52;4;4;g63luoo50ve7yyn;true;166.695;390;195;psychophysics;856658;experimental_data;NULL;NULL;NULL;NULL;12_11_2020_10_20_37
NULL;NULL;0;NULL;end_of_block;NULL;1639;NULL;NULL;NULL;NULL;32;NULL;NULL;g63luoo50ve7yyn;NULL;NULL;NULL;NULL;html-keyboard-response;859302;experimental_data;859317;143.219;1;NULL;12_11_2020_10_20_37
106;14;4;noStructureExp;bars;3;2328;saddlebrown;saddlebrown,white,black;390,300,480;150,180,210;32;1;1;g63luoo50ve7yyn;true;166.656;390;195;psychophysics;862636;experimental_data;NULL;NULL;NULL;NULL;12_11_2020_10_20_37
106;14;4;noStructureExp;query;3;1128;saddlebrown;saddlebrown,white,black;390,300,480;150,180,210;49;1;1;g63luoo50ve7yyn;true;166.668;390;195;psychophysics;864770;experimental_data;NULL;NULL;NULL;NULL;12_11_2020_10_20_37
107;10;4;noStructureExp;bars;3;1657;green;green,saddlebrown,white;390,300,480;210,240,270;32;1;1;g63luoo50ve7yyn;true;166.685;390;195;psychophysics;868436;experimental_data;NULL;NULL;NULL;NULL;12_11_2020_10_20_37
107;10;4;noStructureExp;query;3;957;green;green,saddlebrown,white;390,300,480;210,240,270;49;1;1;g63luoo50ve7yyn;true;166.646;390;195;psychophysics;870398;experimental_data;NULL;NULL;NULL;NULL;12_11_2020_10_20_37
108;23;4;noStructureExp;bars;5;6131;yellow;black,yellow,pink,red,orange;570,390,210,300,480;150,180,210,240,270;32;2;2;g63luoo50ve7yyn;true;166.666;390;195;psychophysics;878539;experimental_data;NULL;NULL;NULL;NULL;12_11_2020_10_20_37
108;23;4;noStructureExp;query;5;1180;yellow;black,yellow,pink,red,orange;570,390,210,300,480;150,180,210,240,270;50;2;2;g63luoo50ve7yyn;true;166.664;390;195;psychophysics;880724;experimental_data;NULL;NULL;NULL;NULL;12_11_2020_10_20_37
109;29;4;noStructureExp;bars;6;6048;orange;red,black,orange,saddlebrown,yellow,blue;120,480,390,570,210,300;180,210,240,270,300,330;32;3;3;g63luoo50ve7yyn;true;166.668;390;195;psychophysics;888784;experimental_data;NULL;NULL;NULL;NULL;12_11_2020_10_20_37
109;29;4;noStructureExp;query;6;2002;orange;red,black,orange,saddlebrown,yellow,blue;120,480,390,570,210,300;180,210,240,270,300,330;51;3;3;g63luoo50ve7yyn;true;16.668;390;195;psychophysics;891791;experimental_data;NULL;NULL;NULL;NULL;12_11_2020_10_20_37
110;26;4;noStructureExp;bars;6;6958;white;green,pink,white,red,black,purple;570,390,300,210,480,120;180,210,240,270,300,330;32;3;3;g63luoo50ve7yyn;true;166.662;390;195;psychophysics;900756;experimental_data;NULL;NULL;NULL;NULL;12_11_2020_10_20_37
110;26;4;noStructureExp;query;6;1591;white;green,pink,white,red,black,purple;570,390,300,210,480,120;180,210,240,270,300,330;51;3;3;g63luoo50ve7yyn;true;166.655;390;195;psychophysics;903353;experimental_data;NULL;NULL;NULL;NULL;12_11_2020_10_20_37
111;15;4;noStructureExp;bars;4;3826;black;saddlebrown,black,white,red;480,390,210,300;210,240,270,300;32;2;2;g63luoo50ve7yyn;true;166.667;390;195;psychophysics;909190;experimental_data;NULL;NULL;NULL;NULL;12_11_2020_10_20_37
111;15;4;noStructureExp;query;4;941;black;saddlebrown,black,white,red;480,390,210,300;210,240,270,300;50;2;2;g63luoo50ve7yyn;true;166.683;390;195;psychophysics;911137;experimental_data;NULL;NULL;NULL;NULL;12_11_2020_10_20_37
112;12;4;noStructureExp;bars;3;2561;orange;pink,orange,yellow;480,300,390;210,240,270;32;2;2;g63luoo50ve7yyn;true;166.665;390;195;psychophysics;915707;experimental_data;NULL;NULL;NULL;NULL;12_11_2020_10_20_37
112;12;4;noStructureExp;query;3;1109;orange;pink,orange,yellow;480,300,390;210,240,270;50;2;2;g63luoo50ve7yyn;true;166.658;390;195;psychophysics;917825;experimental_data;NULL;NULL;NULL;NULL;12_11_2020_10_20_37
113;25;4;noStructureExp;bars;6;8570;yellow;purple,saddlebrown,yellow,red,orange,white;570,300,480,120,390,210;180,210,240,270,300,330;32;3;3;g63luoo50ve7yyn;true;168.308;390;195;psychophysics;928407;experimental_data;NULL;NULL;NULL;NULL;12_11_2020_10_20_37
113;25;4;noStructureExp;query;6;2210;yellow;purple,saddlebrown,yellow,red,orange,white;570,300,480,120,390,210;180,210,240,270,300,330;51;3;3;g63luoo50ve7yyn;true;166.665;390;195;psychophysics;931630;experimental_data;NULL;NULL;NULL;NULL;12_11_2020_10_20_37
114;33;4;noStructureExp;bars;7;7911;red;red,saddlebrown,pink,green,purple,yellow,orange;660,300,210,570,480,390,120;150,180,210,240,270,300,330;32;1;1;g63luoo50ve7yyn;true;166.666;390;195;psychophysics;941551;experimental_data;NULL;NULL;NULL;NULL;12_11_2020_10_20_37
114;33;4;noStructureExp;query;7;1034;red;red,saddlebrown,pink,green,purple,yellow,orange;660,300,210,570,480,390,120;150,180,210,240,270,300,330;49;1;1;g63luoo50ve7yyn;true;166.696;390;195;psychophysics;943592;experimental_data;NULL;NULL;NULL;NULL;12_11_2020_10_20_37
115;28;4;noStructureExp;bars;6;3533;orange;purple,yellow,pink,blue,orange,black;480,570,300,210,120,390;150,180,210,240,270,300;32;5;2;g63luoo50ve7yyn;false;166.668;390;195;psychophysics;949133;experimental_data;NULL;NULL;NULL;NULL;12_11_2020_10_20_37
115;28;4;noStructureExp;query;6;961;orange;purple,yellow,pink,blue,orange,black;480,570,300,210,120,390;150,180,210,240,270,300;50;5;2;g63luoo50ve7yyn;false;166.691;390;195;psychophysics;951100;experimental_data;NULL;NULL;NULL;NULL;12_11_2020_10_20_37
116;5;4;noStructureExp;bars;2;1216;pink;black,pink;300,39;150,18;32;2;2;g63luoo50ve7yyn;true;166.661;390;195;psychophysics;954324;experimental_data;NULL;NULL;NULL;NULL;12_11_2020_10_20_37
116;5;4;noStructureExp;query;2;1013;pink;black,pink;300,39;150,18;50;2;2;g63luoo50ve7yyn;true;166.615;390;195;psychophysics;956345;experimental_data;NULL;NULL;NULL;NULL;12_11_2020_10_20_37
117;30;4;noStructureExp;bars;7;7451;yellow;saddlebrown,orange,purple,yellow,pink,red,blue;660,120,390,480,300,570,210;150,180,210,240,270,300,330;32;4;4;g63luoo50ve7yyn;true;166.666;390;195;psychophysics;965801;experimental_data;NULL;NULL;NULL;NULL;12_11_2020_10_20_37
117;30;4;noStructureExp;query;7;3486;yellow;saddlebrown,orange,purple,yellow,pink,red,blue;660,120,390,480,300,570,210;150,180,210,240,270,300,330;52;4;4;g63luoo50ve7yyn;true;16.667;390;195;psychophysics;970290;experimental_data;NULL;NULL;NULL;NULL;12_11_2020_10_20_37
118;3;4;noStructureExp;bars;1;911;black;black;390;240;32;1;1;g63luoo50ve7yyn;true;166.664;390;195;psychophysics;973210;experimental_data;NULL;NULL;NULL;NULL;12_11_2020_10_20_37
118;3;4;noStructureExp;query;1;355;black;black;390;240;49;1;1;g63luoo50ve7yyn;true;166.575;390;195;psychophysics;974570;experimental_data;NULL;NULL;NULL;NULL;12_11_2020_10_20_37
119;2;4;noStructureExp;bars;1;665;yellow;yellow;390;240;32;1;1;g63luoo50ve7yyn;true;166.674;390;195;psychophysics;977243;experimental_data;NULL;NULL;NULL;NULL;12_11_2020_10_20_37
119;2;4;noStructureExp;query;1;310;yellow;yellow;390;240;49;1;1;g63luoo50ve7yyn;true;166.682;390;195;psychophysics;978559;experimental_data;NULL;NULL;NULL;NULL;12_11_2020_10_20_37
120;6;4;noStructureExp;bars;2;1009;black;pink,black;390,3;300,33;32;2;2;g63luoo50ve7yyn;true;166.677;390;195;psychophysics;981578;experimental_data;NULL;NULL;NULL;NULL;12_11_2020_10_20_37
120;6;4;noStructureExp;query;2;907;black;pink,black;390,3;300,33;50;2;2;g63luoo50ve7yyn;true;166.651;390;195;psychophysics;983490;experimental_data;NULL;NULL;NULL;NULL;12_11_2020_10_20_37
121;21;4;noStructureExp;bars;5;3662;red;pink,white,blue,orange,red;210,390,570,480,300;150,180,210,240,270;32;5;5;g63luoo50ve7yyn;true;166.665;390;195;psychophysics;989161;experimental_data;NULL;NULL;NULL;NULL;12_11_2020_10_20_37
121;21;4;noStructureExp;query;5;3098;red;pink,white,blue,orange,red;210,390,570,480,300;150,180,210,240,270;53;5;5;g63luoo50ve7yyn;true;166.672;390;195;psychophysics;993265;experimental_data;NULL;NULL;NULL;NULL;12_11_2020_10_20_37
122;19;4;noStructureExp;bars;4;2522;green;white,orange,green,saddlebrown;390,210,300,480;210,240,270,300;32;3;3;g63luoo50ve7yyn;true;166.672;390;195;psychophysics;997805;experimental_data;NULL;NULL;NULL;NULL;12_11_2020_10_20_37
122;19;4;noStructureExp;query;4;3573;green;white,orange,green,saddlebrown;390,210,300,480;210,240,270,300;51;3;3;g63luoo50ve7yyn;true;166.673;390;195;psychophysics;1002385;experimental_data;NULL;NULL;NULL;NULL;12_11_2020_10_20_37
123;32;4;noStructureExp;bars;7;7776;white;pink,white,saddlebrown,blue,orange,red,black;210,570,120,480,660,390,300;150,180,210,240,270,300,330;32;2;2;g63luoo50ve7yyn;true;166.663;390;195;psychophysics;1012171;experimental_data;NULL;NULL;NULL;NULL;12_11_2020_10_20_37
123;32;4;noStructureExp;query;7;1143;white;pink,white,saddlebrown,blue,orange,red,black;210,570,120,480,660,390,300;150,180,210,240,270,300,330;50;2;2;g63luoo50ve7yyn;true;166.651;390;195;psychophysics;1014318;experimental_data;NULL;NULL;NULL;NULL;12_11_2020_10_20_37
124;0;4;noStructureExp;bars;1;687;blue;blue;390;180;32;1;1;g63luoo50ve7yyn;true;166.696;390;195;psychophysics;1017011;experimental_data;NULL;NULL;NULL;NULL;12_11_2020_10_20_37
124;0;4;noStructureExp;query;1;356;blue;blue;390;180;49;1;1;g63luoo50ve7yyn;true;166.622;390;195;psychophysics;1018372;experimental_data;NULL;NULL;NULL;NULL;12_11_2020_10_20_37
125;13;4;noStructureExp;bars;3;1440;white;white,yellow,purple;480,390,300;270,300,330;32;1;1;g63luoo50ve7yyn;true;166.669;390;195;psychophysics;1021821;experimental_data;NULL;NULL;NULL;NULL;12_11_2020_10_20_37
125;13;4;noStructureExp;query;3;698;white;white,yellow,purple;480,390,300;270,300,330;49;1;1;g63luoo50ve7yyn;true;166.677;390;195;psychophysics;1023524;experimental_data;NULL;NULL;NULL;NULL;12_11_2020_10_20_37
126;20;4;noStructureExp;bars;5;3820;black;saddlebrown,black,blue,white,yellow;570,480,300,390,210;210,240,270,300,330;32;2;2;g63luoo50ve7yyn;true;166.665;390;195;psychophysics;1029349;experimental_data;NULL;NULL;NULL;NULL;12_11_2020_10_20_37
126;20;4;noStructureExp;query;5;831;black;saddlebrown,black,blue,white,yellow;570,480,300,390,210;210,240,270,300,330;50;2;2;g63luoo50ve7yyn;true;166.689;390;195;psychophysics;1031186;experimental_data;NULL;NULL;NULL;NULL;12_11_2020_10_20_37
127;4;4;noStructureExp;bars;1;667;blue;blue;390;210;32;1;1;g63luoo50ve7yyn;true;166.698;390;195;psychophysics;1033859;experimental_data;NULL;NULL;NULL;NULL;12_11_2020_10_20_37
127;4;4;noStructureExp;query;1;426;blue;blue;390;210;49;1;1;g63luoo50ve7yyn;true;166.652;390;195;psychophysics;1035290;experimental_data;NULL;NULL;NULL;NULL;12_11_2020_10_20_37
128;27;4;noStructureExp;bars;6;7579;yellow;orange,red,white,yellow,saddlebrown,green;570,120,480,300,390,210;180,210,240,270,300,330;32;4;4;g63luoo50ve7yyn;true;166.665;390;195;psychophysics;1044876;experimental_data;NULL;NULL;NULL;NULL;12_11_2020_10_20_37
128;27;4;noStructureExp;query;6;2383;yellow;orange,red,white,yellow,saddlebrown,green;570,120,480,300,390,210;180,210,240,270,300,330;52;4;4;g63luoo50ve7yyn;true;166.687;390;195;psychophysics;1048264;experimental_data;NULL;NULL;NULL;NULL;12_11_2020_10_20_37
129;18;4;noStructureExp;bars;4;1945;blue;pink,blue,orange,white;390,300,210,480;150,180,210,240;32;2;2;g63luoo50ve7yyn;true;166.689;390;195;psychophysics;1052216;experimental_data;NULL;NULL;NULL;NULL;12_11_2020_10_20_37
129;18;4;noStructureExp;query;4;907;blue;pink,blue,orange,white;390,300,210,480;150,180,210,240;50;2;2;g63luoo50ve7yyn;true;166.662;390;195;psychophysics;1054130;experimental_data;NULL;NULL;NULL;NULL;12_11_2020_10_20_37
130;1;4;noStructureExp;bars;1;841;orange;orange;390;180;32;1;1;g63luoo50ve7yyn;true;16.665;390;195;psychophysics;1056979;experimental_data;NULL;NULL;NULL;NULL;12_11_2020_10_20_37
130;1;4;noStructureExp;query;1;332;orange;orange;390;180;49;1;1;g63luoo50ve7yyn;true;16.653;390;195;psychophysics;1058319;experimental_data;NULL;NULL;NULL;NULL;12_11_2020_10_20_37
131;22;4;noStructureExp;bars;5;4960;pink;blue,saddlebrown,pink,white,green;480,210,300,390,570;210,240,270,300,330;32;3;3;g63luoo50ve7yyn;true;166.667;390;195;psychophysics;1065287;experimental_data;NULL;NULL;NULL;NULL;12_11_2020_10_20_37
131;22;4;noStructureExp;query;5;1864;pink;blue,saddlebrown,pink,white,green;480,210,300,390,570;210,240,270,300,330;51;3;3;g63luoo50ve7yyn;true;166.665;390;195;psychophysics;1068156;experimental_data;NULL;NULL;NULL;NULL;12_11_2020_10_20_37
132;9;4;noStructureExp;bars;2;993;orange;white,orange;300,39;210,24;32;2;2;g63luoo50ve7yyn;true;166.702;390;195;psychophysics;1071158;experimental_data;NULL;NULL;NULL;NULL;12_11_2020_10_20_37
132;9;4;noStructureExp;query;2;707;orange;white,orange;300,39;210,24;50;2;2;g63luoo50ve7yyn;true;166.624;390;195;psychophysics;1072871;experimental_data;NULL;NULL;NULL;NULL;12_11_2020_10_20_37
133;17;4;noStructureExp;bars;4;3192;blue;black,green,blue,saddlebrown;480,210,390,300;180,210,240,270;32;3;3;g63luoo50ve7yyn;true;16.667;390;195;psychophysics;1078071;experimental_data;NULL;NULL;NULL;NULL;12_11_2020_10_20_37
133;17;4;noStructureExp;query;4;1183;blue;black,green,blue,saddlebrown;480,210,390,300;180,210,240,270;51;3;3;g63luoo50ve7yyn;true;166.675;390;195;psychophysics;1080260;experimental_data;NULL;NULL;NULL;NULL;12_11_2020_10_20_37
134;31;4;noStructureExp;bars;7;5305;blue;orange,black,blue,purple,saddlebrown,red,green;120,570,300,210,660,480,390;150,180,210,240,270,300,330;32;3;3;g63luoo50ve7yyn;true;166.664;390;195;psychophysics;1087572;experimental_data;NULL;NULL;NULL;NULL;12_11_2020_10_20_37
134;31;4;noStructureExp;query;7;2048;blue;orange,black,blue,purple,saddlebrown,red,green;120,570,300,210,660,480,390;150,180,210,240,270,300,330;51;3;3;g63luoo50ve7yyn;true;166.679;390;195;psychophysics;1090626;experimental_data;NULL;NULL;NULL;NULL;12_11_2020_10_20_37
135;34;4;noStructureExp;bars;7;4653;pink;white,pink,purple,blue,yellow,green,orange;660,570,210,120,300,480,390;150,180,210,240,270,300,330;32;2;2;g63luoo50ve7yyn;true;166.672;390;195;psychophysics;1097287;experimental_data;NULL;NULL;NULL;NULL;12_11_2020_10_20_37
135;34;4;noStructureExp;query;7;1501;pink;white,pink,purple,blue,yellow,green,orange;660,570,210,120,300,480,390;150,180,210,240,270,300,330;50;2;2;g63luoo50ve7yyn;true;166.698;390;195;psychophysics;1099794;experimental_data;NULL;NULL;NULL;NULL;12_11_2020_10_20_37
136;24;4;noStructureExp;bars;5;3305;green;saddlebrown,green,pink,purple,black;480,390,300,570,210;210,240,270,300,330;32;2;2;g63luoo50ve7yyn;true;166.679;390;195;psychophysics;1105106;experimental_data;NULL;NULL;NULL;NULL;12_11_2020_10_20_37
136;24;4;noStructureExp;query;5;858;green;saddlebrown,green,pink,purple,black;480,390,300,570,210;210,240,270,300,330;50;2;2;g63luoo50ve7yyn;true;166.676;390;195;psychophysics;1106967;experimental_data;NULL;NULL;NULL;NULL;12_11_2020_10_20_37
137;7;4;noStructureExp;bars;2;1234;black;blue,black;300,39;300,33;32;2;2;g63luoo50ve7yyn;true;16.668;390;195;psychophysics;1110211;experimental_data;NULL;NULL;NULL;NULL;12_11_2020_10_20_37
137;7;4;noStructureExp;query;2;586;black;blue,black;300,39;300,33;50;2;2;g63luoo50ve7yyn;true;166.641;390;195;psychophysics;1111802;experimental_data;NULL;NULL;NULL;NULL;12_11_2020_10_20_37
138;11;4;noStructureExp;bars;3;2064;purple;purple,orange,black;300,390,480;270,300,330;32;1;1;g63luoo50ve7yyn;true;166.664;390;195;psychophysics;1115872;experimental_data;NULL;NULL;NULL;NULL;12_11_2020_10_20_37
138;11;4;noStructureExp;query;3;2225;purple;purple,orange,black;300,390,480;270,300,330;49;1;1;g63luoo50ve7yyn;true;166.671;390;195;psychophysics;1119105;experimental_data;NULL;NULL;NULL;NULL;12_11_2020_10_20_37
139;16;4;noStructureExp;bars;4;2644;purple;yellow,saddlebrown,black,purple;480,390,210,300;180,210,240,270;32;4;4;g63luoo50ve7yyn;true;166.662;390;195;psychophysics;1123755;experimental_data;NULL;NULL;NULL;NULL;12_11_2020_10_20_37
139;16;4;noStructureExp;query;4;1682;purple;yellow,saddlebrown,black,purple;480,390,210,300;180,210,240,270;52;4;4;g63luoo50ve7yyn;true;166.651;390;195;psychophysics;1126443;experimental_data;NULL;NULL;NULL;NULL;12_11_2020_10_20_37
140;8;4;noStructureExp;bars;2;741;purple;red,purple;390,3;180,21;32;2;2;g63luoo50ve7yyn;true;166.593;390;195;psychophysics;1129191;experimental_data;NULL;NULL;NULL;NULL;12_11_2020_10_20_37
140;8;4;noStructureExp;query;2;898;purple;red,purple;390,3;180,21;50;2;2;g63luoo50ve7yyn;true;166.659;390;195;psychophysics;1131094;experimental_data;NULL;NULL;NULL;NULL;12_11_2020_10_20_37
NULL;NULL;0;NULL;end_of_block;NULL;1517;NULL;NULL;NULL;NULL;32;NULL;NULL;g63luoo50ve7yyn;NULL;NULL;NULL;NULL;html-keyboard-response;1133616;experimental_data;1133631;188.939;0.971429;NULL;12_11_2020_10_20_37
141;32;5;sortStructureCont;bars;7;6533;orange;white,purple,black,red,pink,saddlebrown,orange;120,210,300,390,480,570,660;150,180,210,240,270,300,330;32;7;7;g63luoo50ve7yyn;true;166.668;390;195;psychophysics;1141156;experimental_data;NULL;NULL;NULL;NULL;12_11_2020_10_20_37
141;32;5;sortStructureCont;query;7;7203;orange;white,purple,black,red,pink,saddlebrown,orange;120,210,300,390,480,570,660;150,180,210,240,270,300,330;55;7;7;g63luoo50ve7yyn;true;166.666;390;195;psychophysics;1149363;experimental_data;NULL;NULL;NULL;NULL;12_11_2020_10_20_37
142;17;5;sortStructureCont;bars;4;3158;orange;purple,black,red,orange;210,300,390,480;180,210,240,270;32;4;4;g63luoo50ve7yyn;true;166.675;390;195;psychophysics;1154530;experimental_data;NULL;NULL;NULL;NULL;12_11_2020_10_20_37
142;17;5;sortStructureCont;query;4;516;orange;purple,black,red,orange;210,300,390,480;180,210,240,270;52;4;4;g63luoo50ve7yyn;true;166.657;390;195;psychophysics;1156051;experimental_data;NULL;NULL;NULL;NULL;12_11_2020_10_20_37
143;26;5;sortStructureCont;bars;6;2309;purple;orange,purple,black,red,green,pink;120,210,300,390,480,570;180,210,240,270,300,330;32;2;2;g63luoo50ve7yyn;true;166.672;390;195;psychophysics;1160365;experimental_data;NULL;NULL;NULL;NULL;12_11_2020_10_20_37
143;26;5;sortStructureCont;query;6;1798;purple;orange,purple,black,red,green,pink;120,210,300,390,480,570;180,210,240,270,300,330;50;2;2;g63luoo50ve7yyn;true;166.681;390;195;psychophysics;1163169;experimental_data;NULL;NULL;NULL;NULL;12_11_2020_10_20_37
144;24;5;sortStructureCont;bars;5;2652;black;orange,white,purple,black,red;210,300,390,480,570;210,240,270,300,330;32;4;4;g63luoo50ve7yyn;true;166.675;390;195;psychophysics;1167829;experimental_data;NULL;NULL;NULL;NULL;12_11_2020_10_20_37
144;24;5;sortStructureCont;query;5;3070;black;orange,white,purple,black,red;210,300,390,480,570;210,240,270,300,330;52;4;4;g63luoo50ve7yyn;true;166.666;390;195;psychophysics;1171904;experimental_data;NULL;NULL;NULL;NULL;12_11_2020_10_20_37
145;8;5;sortStructureCont;bars;2;761;purple;purple,black;300,39;180,21;32;1;1;g63luoo50ve7yyn;true;166.583;390;195;psychophysics;1174671;experimental_data;NULL;NULL;NULL;NULL;12_11_2020_10_20_37
145;8;5;sortStructureCont;query;2;543;purple;purple,black;300,39;180,21;49;1;1;g63luoo50ve7yyn;true;166.709;390;195;psychophysics;1176219;experimental_data;NULL;NULL;NULL;NULL;12_11_2020_10_20_37
146;21;5;sortStructureCont;bars;5;2531;black;purple,black,red,orange,yellow;210,300,390,480,570;150,180,210,240,270;32;2;2;g63luoo50ve7yyn;true;166.666;390;195;psychophysics;1180758;experimental_data;NULL;NULL;NULL;NULL;12_11_2020_10_20_37
146;21;5;sortStructureCont;query;5;811;black;purple,black,red,orange,yellow;210,300,390,480,570;150,180,210,240,270;50;2;2;g63luoo50ve7yyn;true;166.658;390;195;psychophysics;1182575;experimental_data;NULL;NULL;NULL;NULL;12_11_2020_10_20_37
147;6;5;sortStructureCont;bars;2;850;purple;purple,black;300,39;300,33;32;1;1;g63luoo50ve7yyn;true;166.662;390;195;psychophysics;1185433;experimental_data;NULL;NULL;NULL;NULL;12_11_2020_10_20_37
147;6;5;sortStructureCont;query;2;623;purple;purple,black;300,39;300,33;49;1;1;g63luoo50ve7yyn;true;166.638;390;195;psychophysics;1187060;experimental_data;NULL;NULL;NULL;NULL;12_11_2020_10_20_37
148;25;5;sortStructureCont;bars;6;4068;black;purple,black,red,orange,green,saddlebrown;120,210,300,390,480,570;180,210,240,270,300,330;32;2;2;g63luoo50ve7yyn;true;166.671;390;195;psychophysics;1193137;experimental_data;NULL;NULL;NULL;NULL;12_11_2020_10_20_37
148;25;5;sortStructureCont;query;6;997;black;purple,black,red,orange,green,saddlebrown;120,210,300,390,480,570;180,210,240,270,300,330;50;2;2;g63luoo50ve7yyn;true;166.679;390;195;psychophysics;1195139;experimental_data;NULL;NULL;NULL;NULL;12_11_2020_10_20_37
149;4;5;sortStructureCont;bars;1;982;purple;purple;390;210;32;1;1;g63luoo50ve7yyn;true;166.687;390;195;psychophysics;1198127;experimental_data;NULL;NULL;NULL;NULL;12_11_2020_10_20_37
149;4;5;sortStructureCont;query;1;380;purple;purple;390;210;49;1;1;g63luoo50ve7yyn;true;166.625;390;195;psychophysics;1199514;experimental_data;NULL;NULL;NULL;NULL;12_11_2020_10_20_37
150;14;5;sortStructureCont;bars;3;1457;red;purple,black,red;300,390,480;150,180,210;32;3;3;g63luoo50ve7yyn;true;166.649;390;195;psychophysics;1202978;experimental_data;NULL;NULL;NULL;NULL;12_11_2020_10_20_37
150;14;5;sortStructureCont;query;3;821;red;purple,black,red;300,390,480;150,180,210;51;3;3;g63luoo50ve7yyn;true;166.664;390;195;psychophysics;1204805;experimental_data;NULL;NULL;NULL;NULL;12_11_2020_10_20_37
