Trial_index;TrialID;Block;Conditions;Stimulus_type;Number_of_Bars;rt;Query_color;color_sequence;position_sequence;heights;key_press;Correct_Position;response_position;subject_id;correct;avg_frame_time;center_x;center_y;trial_type;time_elapsed;TrialType;timeMs;timeMin;score;reward;date
1;4;1;noStructureExp;bars;5;1337;blue;yellow,saddlebrown,green,blue,black;570,210,390,480,300;180,210,240,270,300;32;4;3;6ay43rhbk9cygs5;false;166.799;390;195;psychophysics;35583;practice_trials;NULL;NULL;NULL;NULL;12_11_2020_16_32_11
1;4;1;noStructureExp;query;5;2307;blue;yellow,saddlebrown,green,blue,black;570,210,390,480,300;180,210,240,270,300;51;4;3;6ay43rhbk9cygs5;false;166.822;390;195;psychophysics;38895;practice_trial;NULL;NULL;NULL;NULL;12_11_2020_16_32_11
2;5;1;noStructureExp;bars;6;2103;white;blue,green,yellow,saddlebrown,white,black;120,570,480,300,210,390;180,210,240,270,300,330;32;5;5;6ay43rhbk9cygs5;true;166.828;390;195;psychophysics;43008;practice_trials;NULL;NULL;NULL;NULL;12_11_2020_16_32_11
2;5;1;noStructureExp;query;6;1779;white;blue,green,yellow,saddlebrown,white,black;120,570,480,300,210,390;180,210,240,270,300,330;53;5;5;6ay43rhbk9cygs5;true;166.847;390;195;psychophysics;45791;practice_trial;NULL;NULL;NULL;NULL;12_11_2020_16_32_11
3;2;1;noStructureExp;bars;3;1121;black;saddlebrown,black,purple;390,480,300;180,210,240;32;2;3;6ay43rhbk9cygs5;false;166.806;390;195;psychophysics;48919;practice_trials;NULL;NULL;NULL;NULL;12_11_2020_16_32_11
3;2;1;noStructureExp;query;3;1540;black;saddlebrown,black,purple;390,480,300;180,210,240;51;2;3;6ay43rhbk9cygs5;false;166.828;390;195;psychophysics;51466;practice_trial;NULL;NULL;NULL;NULL;12_11_2020_16_32_11
4;6;1;noStructureExp;bars;7;1743;purple;pink,purple,saddlebrown,orange,blue,yellow,white;570,660,300,480,390,210,120;150,180,210,240,270,300,330;32;2;4;6ay43rhbk9cygs5;false;166.803;390;195;psychophysics;55218;practice_trials;NULL;NULL;NULL;NULL;12_11_2020_16_32_11
4;6;1;noStructureExp;query;7;1050;purple;pink,purple,saddlebrown,orange,blue,yellow,white;570,660,300,480,390,210,120;150,180,210,240,270,300,330;52;2;4;6ay43rhbk9cygs5;false;16.684;390;195;psychophysics;57273;practice_trial;NULL;NULL;NULL;NULL;12_11_2020_16_32_11
5;1;1;noStructureExp;bars;2;1182;white;white,yellow;300,39;180,21;32;1;1;6ay43rhbk9cygs5;true;166.831;390;195;psychophysics;60460;practice_trials;NULL;NULL;NULL;NULL;12_11_2020_16_32_11
5;1;1;noStructureExp;query;2;1122;white;white,yellow;300,39;180,21;49;1;1;6ay43rhbk9cygs5;true;166.829;390;195;psychophysics;62585;practice_trial;NULL;NULL;NULL;NULL;12_11_2020_16_32_11
6;3;1;noStructureExp;bars;4;1243;pink;orange,yellow,green,pink;300,390,480,210;150,180,210,240;32;4;1;6ay43rhbk9cygs5;false;166.878;390;195;psychophysics;65836;practice_trials;NULL;NULL;NULL;NULL;12_11_2020_16_32_11
6;3;1;noStructureExp;query;4;695;pink;orange,yellow,green,pink;300,390,480,210;150,180,210,240;49;4;1;6ay43rhbk9cygs5;false;166.846;390;195;psychophysics;67535;practice_trial;NULL;NULL;NULL;NULL;12_11_2020_16_32_11
7;0;1;noStructureExp;bars;1;606;yellow;yellow;390;270;32;1;1;6ay43rhbk9cygs5;true;166.831;390;195;psychophysics;70147;practice_trials;NULL;NULL;NULL;NULL;12_11_2020_16_32_11
7;0;1;noStructureExp;query;1;1704;yellow;yellow;390;270;49;1;1;6ay43rhbk9cygs5;true;166.809;390;195;psychophysics;72856;practice_trial;NULL;NULL;NULL;NULL;12_11_2020_16_32_11
8;0;2;noStructureCont;bars;1;1164;pink;pink;390;270;32;1;1;6ay43rhbk9cygs5;true;166.824;390;195;psychophysics;78034;practice_trials;NULL;NULL;NULL;NULL;12_11_2020_16_32_11
8;0;2;noStructureCont;query;1;812;pink;pink;390;270;49;1;1;6ay43rhbk9cygs5;true;166.719;390;195;psychophysics;79852;practice_trial;NULL;NULL;NULL;NULL;12_11_2020_16_32_11
9;4;2;noStructureCont;bars;5;3950;black;yellow,orange,pink,black,white;210,300,390,480,570;180,210,240,270,300;32;4;3;6ay43rhbk9cygs5;false;166.835;390;195;psychophysics;85808;practice_trials;NULL;NULL;NULL;NULL;12_11_2020_16_32_11
9;4;2;noStructureCont;query;5;2656;black;yellow,orange,pink,black,white;210,300,390,480,570;180,210,240,270,300;51;4;3;6ay43rhbk9cygs5;false;166.829;390;195;psychophysics;89476;practice_trial;NULL;NULL;NULL;NULL;12_11_2020_16_32_11
10;3;2;noStructureCont;bars;4;1575;yellow;pink,orange,white,yellow;210,300,390,480;150,180,210,240;32;4;4;6ay43rhbk9cygs5;true;166.871;390;195;psychophysics;93063;practice_trials;NULL;NULL;NULL;NULL;12_11_2020_16_32_11
10;3;2;noStructureCont;query;4;1550;yellow;pink,orange,white,yellow;210,300,390,480;150,180,210,240;52;4;4;6ay43rhbk9cygs5;true;166.825;390;195;psychophysics;95617;practice_trial;NULL;NULL;NULL;NULL;12_11_2020_16_32_11
11;1;2;noStructureCont;bars;2;767;blue;blue,saddlebrown;300,39;180,21;32;1;1;6ay43rhbk9cygs5;true;166.852;390;195;psychophysics;98392;practice_trials;NULL;NULL;NULL;NULL;12_11_2020_16_32_11
11;1;2;noStructureCont;query;2;613;blue;blue,saddlebrown;300,39;180,21;49;1;1;6ay43rhbk9cygs5;true;166.831;390;195;psychophysics;100009;practice_trial;NULL;NULL;NULL;NULL;12_11_2020_16_32_11
12;2;2;noStructureCont;bars;3;2281;red;orange,red,blue;300,390,480;180,210,240;32;2;2;6ay43rhbk9cygs5;true;16.686;390;195;psychophysics;104297;practice_trials;NULL;NULL;NULL;NULL;12_11_2020_16_32_11
12;2;2;noStructureCont;query;3;820;red;orange,red,blue;300,390,480;180,210,240;50;2;2;6ay43rhbk9cygs5;true;166.851;390;195;psychophysics;106121;practice_trial;NULL;NULL;NULL;NULL;12_11_2020_16_32_11
13;6;2;noStructureCont;bars;7;2005;pink;white,pink,blue,saddlebrown,red,purple,orange;120,210,300,390,480,570,660;150,180,210,240,270,300,330;32;2;3;6ay43rhbk9cygs5;false;166.836;390;195;psychophysics;110132;practice_trials;NULL;NULL;NULL;NULL;12_11_2020_16_32_11
13;6;2;noStructureCont;query;7;2268;pink;white,pink,blue,saddlebrown,red,purple,orange;120,210,300,390,480,570,660;150,180,210,240,270,300,330;51;2;3;6ay43rhbk9cygs5;false;166.836;390;195;psychophysics;113405;practice_trial;NULL;NULL;NULL;NULL;12_11_2020_16_32_11
14;5;2;noStructureCont;bars;6;2277;purple;green,orange,white,saddlebrown,purple,blue;120,210,300,390,480,570;180,210,240,270,300,330;32;5;5;6ay43rhbk9cygs5;true;166.833;390;195;psychophysics;117692;practice_trials;NULL;NULL;NULL;NULL;12_11_2020_16_32_11
14;5;2;noStructureCont;query;6;1142;purple;green,orange,white,saddlebrown,purple,blue;120,210,300,390,480,570;180,210,240,270,300,330;53;5;5;6ay43rhbk9cygs5;true;166.817;390;195;psychophysics;119840;practice_trial;NULL;NULL;NULL;NULL;12_11_2020_16_32_11
NULL;NULL;NULL;NULL;end_of_practice;NULL;2790;NULL;NULL;NULL;NULL;32;NULL;NULL;6ay43rhbk9cygs5;NULL;NULL;NULL;NULL;html-keyboard-response;123631;practice_trials;123636;20.606;0.571429;NULL;12_11_2020_16_32_11
1;2;1;noStructureExp;bars;3;4973;black;green,black,white;300,480,390;210,240,270;32;2;2;xfc3lc6qhh69plp;true;166.652;390;195;psychophysics;136619;practice_trials;NULL;NULL;NULL;NULL;12_11_2020_19_37_25
1;2;1;noStructureExp;query;3;1639;black;green,black,white;300,480,390;210,240,270;50;2;2;xfc3lc6qhh69plp;true;166.645;390;195;psychophysics;139268;practice_trial;NULL;NULL;NULL;NULL;12_11_2020_19_37_25
2;3;1;noStructureExp;bars;4;4934;pink;purple,saddlebrown,yellow,pink;480,390,300,210;240,270,300,330;32;4;1;xfc3lc6qhh69plp;false;167.214;390;195;psychophysics;146219;practice_trials;NULL;NULL;NULL;NULL;12_11_2020_19_37_25
2;3;1;noStructureExp;query;4;3407;pink;purple,saddlebrown,yellow,pink;480,390,300,210;240,270,300,330;49;4;1;xfc3lc6qhh69plp;false;166.649;390;195;psychophysics;150633;practice_trial;NULL;NULL;NULL;NULL;12_11_2020_19_37_25
3;1;1;noStructureExp;bars;2;4199;blue;blue,purple;300,39;150,18;32;1;1;xfc3lc6qhh69plp;true;166.644;390;195;psychophysics;156842;practice_trials;NULL;NULL;NULL;NULL;12_11_2020_19_37_25
3;1;1;noStructureExp;query;2;2361;blue;blue,purple;300,39;150,18;49;1;1;xfc3lc6qhh69plp;true;166.649;390;195;psychophysics;160216;practice_trial;NULL;NULL;NULL;NULL;12_11_2020_19_37_25
4;6;1;noStructureExp;bars;7;16583;purple;purple,green,orange,saddlebrown,pink,white,blue;570,120,660,390,300,480,210;150,180,210,240,270,300,330;32;1;1;xfc3lc6qhh69plp;true;166.649;390;195;psychophysics;178808;practice_trials;NULL;NULL;NULL;NULL;12_11_2020_19_37_25
4;6;1;noStructureExp;query;7;2159;purple;purple,green,orange,saddlebrown,pink,white,blue;570,120,660,390,300,480,210;150,180,210,240,270,300,330;49;1;1;xfc3lc6qhh69plp;true;16.665;390;195;psychophysics;181979;practice_trial;NULL;NULL;NULL;NULL;12_11_2020_19_37_25
5;4;1;noStructureExp;bars;5;6016;saddlebrown;white,blue,saddlebrown,black,yellow;480,210,300,570,390;150,180,210,240,270;32;3;4;xfc3lc6qhh69plp;false;166.648;390;195;psychophysics;190015;practice_trials;NULL;NULL;NULL;NULL;12_11_2020_19_37_25
5;4;1;noStructureExp;query;5;1338;saddlebrown;white,blue,saddlebrown,black,yellow;480,210,300,570,390;150,180,210,240,270;52;3;4;xfc3lc6qhh69plp;false;166.654;390;195;psychophysics;192360;practice_trial;NULL;NULL;NULL;NULL;12_11_2020_19_37_25
6;5;1;noStructureExp;bars;6;6743;green;red,white,green,pink,blue,saddlebrown;210,120,480,390,570,300;150,180,210,240,270,300;32;3;4;xfc3lc6qhh69plp;false;166.652;390;195;psychophysics;201116;practice_trials;NULL;NULL;NULL;NULL;12_11_2020_19_37_25
6;5;1;noStructureExp;query;6;2021;green;red,white,green,pink,blue,saddlebrown;210,120,480,390,570,300;150,180,210,240,270,300;52;3;4;xfc3lc6qhh69plp;false;166.647;390;195;psychophysics;204159;practice_trial;NULL;NULL;NULL;NULL;12_11_2020_19_37_25
7;0;1;noStructureExp;bars;1;3752;purple;purple;390;330;32;1;1;xfc3lc6qhh69plp;true;16.665;390;195;psychophysics;209920;practice_trials;NULL;NULL;NULL;NULL;12_11_2020_19_37_25
7;0;1;noStructureExp;query;1;1005;purple;purple;390;330;49;1;1;xfc3lc6qhh69plp;true;16.664;390;195;psychophysics;211936;practice_trial;NULL;NULL;NULL;NULL;12_11_2020_19_37_25
8;4;2;noStructureCont;bars;5;4735;purple;saddlebrown,pink,purple,orange,black;210,300,390,480,570;150,180,210,240,270;32;3;3;xfc3lc6qhh69plp;true;166.647;390;195;psychophysics;222066;practice_trials;NULL;NULL;NULL;NULL;12_11_2020_19_37_25
8;4;2;noStructureCont;query;5;2023;purple;saddlebrown,pink,purple,orange,black;210,300,390,480,570;150,180,210,240,270;51;3;3;xfc3lc6qhh69plp;true;166.654;390;195;psychophysics;225098;practice_trial;NULL;NULL;NULL;NULL;12_11_2020_19_37_25
9;0;2;noStructureCont;bars;1;1196;yellow;yellow;390;330;32;1;1;xfc3lc6qhh69plp;true;166.634;390;195;psychophysics;228308;practice_trials;NULL;NULL;NULL;NULL;12_11_2020_19_37_25
9;0;2;noStructureCont;query;1;563;yellow;yellow;390;330;49;1;1;xfc3lc6qhh69plp;true;166.662;390;195;psychophysics;229883;practice_trial;NULL;NULL;NULL;NULL;12_11_2020_19_37_25
10;2;2;noStructureCont;bars;3;2995;purple;yellow,purple,pink;300,390,480;210,240,270;32;2;2;xfc3lc6qhh69plp;true;166.648;390;195;psychophysics;234890;practice_trials;NULL;NULL;NULL;NULL;12_11_2020_19_37_25
10;2;2;noStructureCont;query;3;1094;purple;yellow,purple,pink;300,390,480;210,240,270;50;2;2;xfc3lc6qhh69plp;true;166.644;390;195;psychophysics;237000;practice_trial;NULL;NULL;NULL;NULL;12_11_2020_19_37_25
11;1;2;noStructureCont;bars;2;1919;blue;blue,orange;300,39;150,18;32;1;1;xfc3lc6qhh69plp;true;166.645;390;195;psychophysics;240933;practice_trials;NULL;NULL;NULL;NULL;12_11_2020_19_37_25
11;1;2;noStructureCont;query;2;1007;blue;blue,orange;300,39;150,18;49;1;1;xfc3lc6qhh69plp;true;166.646;390;195;psychophysics;242951;practice_trial;NULL;NULL;NULL;NULL;12_11_2020_19_37_25
12;3;2;noStructureCont;bars;4;2582;red;blue,purple,pink,red;210,300,390,480;240,270,300,330;32;4;4;xfc3lc6qhh69plp;true;16.665;390;195;psychophysics;247543;practice_trials;NULL;NULL;NULL;NULL;12_11_2020_19_37_25
12;3;2;noStructureCont;query;4;1224;red;blue,purple,pink,red;210,300,390,480;240,270,300,330;52;4;4;xfc3lc6qhh69plp;true;166.644;390;195;psychophysics;249780;practice_trial;NULL;NULL;NULL;NULL;12_11_2020_19_37_25
13;5;2;noStructureCont;bars;6;7582;blue;black,green,blue,orange,yellow,red;120,210,300,390,480,570;150,180,210,240,270,300;32;3;3;xfc3lc6qhh69plp;true;166.648;390;195;psychophysics;259379;practice_trials;NULL;NULL;NULL;NULL;12_11_2020_19_37_25
13;5;2;noStructureCont;query;6;1781;blue;black,green,blue,orange,yellow,red;120,210,300,390,480,570;150,180,210,240,270,300;51;3;3;xfc3lc6qhh69plp;true;166.645;390;195;psychophysics;262172;practice_trial;NULL;NULL;NULL;NULL;12_11_2020_19_37_25
14;6;2;noStructureCont;bars;7;5798;red;red,yellow,white,saddlebrown,green,purple,pink;120,210,300,390,480,570,660;150,180,210,240,270,300,330;32;1;1;xfc3lc6qhh69plp;true;166.646;390;195;psychophysics;269995;practice_trials;NULL;NULL;NULL;NULL;12_11_2020_19_37_25
14;6;2;noStructureCont;query;7;1965;red;red,yellow,white,saddlebrown,green,purple,pink;120,210,300,390,480,570,660;150,180,210,240,270,300,330;49;1;1;xfc3lc6qhh69plp;true;166.647;390;195;psychophysics;272972;practice_trial;NULL;NULL;NULL;NULL;12_11_2020_19_37_25
NULL;NULL;NULL;NULL;end_of_practice;NULL;5623;NULL;NULL;NULL;NULL;32;NULL;NULL;xfc3lc6qhh69plp;NULL;NULL;NULL;NULL;html-keyboard-response;279602;practice_trials;279611;466.018;0.785714;NULL;12_11_2020_19_37_25
1;0;1;noStructureExp;bars;1;3185;black;black;390;330;32;1;1;dm2bywnah498o9e;true;167.537;390;195;psychophysics;41526;practice_trials;NULL;NULL;NULL;NULL;13_11_2020_6_31_6
1;0;1;noStructureExp;query;1;3043;black;black;390;330;49;1;1;dm2bywnah498o9e;true;16.666;390;195;psychophysics;45584;practice_trial;NULL;NULL;NULL;NULL;13_11_2020_6_31_6
2;3;1;noStructureExp;bars;4;4044;green;pink,green,purple,orange;300,210,480,390;240,270,300,330;32;2;1;dm2bywnah498o9e;false;168.743;390;195;psychophysics;51653;practice_trials;NULL;NULL;NULL;NULL;13_11_2020_6_31_6
2;3;1;noStructureExp;query;4;1655;green;pink,green,purple,orange;300,210,480,390;240,270,300,330;49;2;1;dm2bywnah498o9e;false;16.666;390;195;psychophysics;54323;practice_trial;NULL;NULL;NULL;NULL;13_11_2020_6_31_6
3;6;1;noStructureExp;bars;7;15818;yellow;pink,green,blue,yellow,red,black,orange;120,660,210,480,300,570,390;150,180,210,240,270,300,330;32;4;-30;dm2bywnah498o9e;invalid response;195.779;390;195;psychophysics;72156;practice_trials;NULL;NULL;NULL;NULL;13_11_2020_6_31_6
3;6;1;noStructureExp;query;7;697;yellow;pink,green,blue,yellow,red,black,orange;120,660,210,480,300,570,390;150,180,210,240,270,300,330;18;4;-30;dm2bywnah498o9e;invalid response;16.666;390;195;psychophysics;73869;practice_trial;NULL;NULL;NULL;NULL;13_11_2020_6_31_6
4;4;1;noStructureExp;bars;5;10328;orange;saddlebrown,black,orange,green,purple;480,300,390,570,210;210,240,270,300,330;32;3;3;dm2bywnah498o9e;true;167.742;390;195;psychophysics;90216;practice_trials;NULL;NULL;NULL;NULL;13_11_2020_6_31_6
4;4;1;noStructureExp;query;5;3379;orange;saddlebrown,black,orange,green,purple;480,300,390,570,210;210,240,270,300,330;51;3;3;dm2bywnah498o9e;true;16.666;390;195;psychophysics;94602;practice_trial;NULL;NULL;NULL;NULL;13_11_2020_6_31_6
5;5;1;noStructureExp;bars;6;7082;pink;pink,white,blue,green,saddlebrown,orange;570,480,120,390,210,300;180,210,240,270,300,330;32;1;6;dm2bywnah498o9e;false;167.845;390;195;psychophysics;103703;practice_trials;NULL;NULL;NULL;NULL;13_11_2020_6_31_6
5;5;1;noStructureExp;query;6;4478;pink;pink,white,blue,green,saddlebrown,orange;570,480,120,390,210,300;180,210,240,270,300,330;54;1;6;dm2bywnah498o9e;false;16.666;390;195;psychophysics;109188;practice_trial;NULL;NULL;NULL;NULL;13_11_2020_6_31_6
6;2;1;noStructureExp;bars;3;2819;green;green,purple,white;300,390,480;210,240,270;32;1;1;dm2bywnah498o9e;true;16.666;390;195;psychophysics;114021;practice_trials;NULL;NULL;NULL;NULL;13_11_2020_6_31_6
6;2;1;noStructureExp;query;3;1271;green;green,purple,white;300,390,480;210,240,270;49;1;1;dm2bywnah498o9e;true;16.666;390;195;psychophysics;116308;practice_trial;NULL;NULL;NULL;NULL;13_11_2020_6_31_6
7;1;1;noStructureExp;bars;2;1722;yellow;white,yellow;390,3;210,24;32;2;1;dm2bywnah498o9e;false;16.666;390;195;psychophysics;120044;practice_trials;NULL;NULL;NULL;NULL;13_11_2020_6_31_6
7;1;1;noStructureExp;query;2;1269;yellow;white,yellow;390,3;210,24;49;2;1;dm2bywnah498o9e;false;16.666;390;195;psychophysics;122324;practice_trial;NULL;NULL;NULL;NULL;13_11_2020_6_31_6
8;0;2;noStructureCont;bars;1;1233;yellow;yellow;390;330;32;1;1;dm2bywnah498o9e;true;16.666;390;195;psychophysics;132051;practice_trials;NULL;NULL;NULL;NULL;13_11_2020_6_31_6
8;0;2;noStructureCont;query;1;1265;yellow;yellow;390;330;49;1;1;dm2bywnah498o9e;true;16.666;390;195;psychophysics;134324;practice_trial;NULL;NULL;NULL;NULL;13_11_2020_6_31_6
9;5;2;noStructureCont;bars;6;6294;black;black,blue,purple,pink,saddlebrown,yellow;120,210,300,390,480,570;180,210,240,270,300,330;32;1;1;dm2bywnah498o9e;true;16. Aug;390;195;psychophysics;142630;practice_trials;NULL;NULL;NULL;NULL;13_11_2020_6_31_6
9;5;2;noStructureCont;query;6;2669;black;black,blue,purple,pink,saddlebrown,yellow;120,210,300,390,480,570;180,210,240,270,300,330;49;1;1;dm2bywnah498o9e;true;167.715;390;195;psychophysics;146308;practice_trial;NULL;NULL;NULL;NULL;13_11_2020_6_31_6
10;4;2;noStructureCont;bars;5;6606;white;orange,red,white,purple,green;210,300,390,480,570;210,240,270,300,330;32;3;3;dm2bywnah498o9e;true;167.083;390;195;psychophysics;154925;practice_trials;NULL;NULL;NULL;NULL;13_11_2020_6_31_6
10;4;2;noStructureCont;query;5;2482;white;orange,red,white,purple,green;210,300,390,480,570;210,240,270,300,330;51;3;3;dm2bywnah498o9e;true;167.794;390;195;psychophysics;158419;practice_trial;NULL;NULL;NULL;NULL;13_11_2020_6_31_6
11;1;2;noStructureCont;bars;2;1497;blue;green,blue;300,39;210,24;32;2;2;dm2bywnah498o9e;true;16.666;390;195;psychophysics;161932;practice_trials;NULL;NULL;NULL;NULL;13_11_2020_6_31_6
11;1;2;noStructureCont;query;2;1280;blue;green,blue;300,39;210,24;50;2;2;dm2bywnah498o9e;true;168.882;390;195;psychophysics;164221;practice_trial;NULL;NULL;NULL;NULL;13_11_2020_6_31_6
12;3;2;noStructureCont;bars;4;6712;yellow;black,yellow,blue,white;210,300,390,480;240,270,300,330;32;2;2;dm2bywnah498o9e;true;167.493;390;195;psychophysics;172951;practice_trials;NULL;NULL;NULL;NULL;13_11_2020_6_31_6
12;3;2;noStructureCont;query;4;1869;yellow;black,yellow,blue,white;210,300,390,480;240,270,300,330;50;2;2;dm2bywnah498o9e;true;16.666;390;195;psychophysics;175829;practice_trial;NULL;NULL;NULL;NULL;13_11_2020_6_31_6
13;6;2;noStructureCont;bars;7;4926;green;black,blue,orange,green,yellow,saddlebrown,purple;120,210,300,390,480,570,660;150,180,210,240,270,300,330;32;4;4;dm2bywnah498o9e;true;169.533;390;195;psychophysics;182765;practice_trials;NULL;NULL;NULL;NULL;13_11_2020_6_31_6
13;6;2;noStructureCont;query;7;3463;green;black,blue,orange,green,yellow,saddlebrown,purple;120,210,300,390,480,570,660;150,180,210,240,270,300,330;52;4;4;dm2bywnah498o9e;true;168.286;390;195;psychophysics;187236;practice_trial;NULL;NULL;NULL;NULL;13_11_2020_6_31_6
14;2;2;noStructureCont;bars;3;2222;orange;orange,black,red;300,390,480;210,240,270;32;1;1;dm2bywnah498o9e;true;16.666;390;195;psychophysics;191476;practice_trials;NULL;NULL;NULL;NULL;13_11_2020_6_31_6
14;2;2;noStructureCont;query;3;1176;orange;orange,black,red;300,390,480;210,240,270;49;1;1;dm2bywnah498o9e;true;16.666;390;195;psychophysics;193666;practice_trial;NULL;NULL;NULL;NULL;13_11_2020_6_31_6
NULL;NULL;NULL;NULL;end_of_practice;NULL;8332;NULL;NULL;NULL;NULL;32;NULL;NULL;dm2bywnah498o9e;NULL;NULL;NULL;NULL;html-keyboard-response;203006;practice_trials;203025;338.375;0.714286;NULL;13_11_2020_6_31_6
1;27;1;noStructureCont;bars;6;4991;white;saddlebrown,green,pink,white,blue,purple;120,210,300,390,480,570;180,210,240,270,300,330;32;4;-30;dm2bywnah498o9e;invalid response;169.485;390;195;psychophysics;10062;experimental_data;NULL;NULL;NULL;NULL;13_11_2020_6_35_11
1;27;1;noStructureCont;query;6;461;white;saddlebrown,green,pink,white,blue,purple;120,210,300,390,480,570;180,210,240,270,300,330;18;4;-30;dm2bywnah498o9e;invalid response;16.666;390;195;psychophysics;11540;experimental_data;NULL;NULL;NULL;NULL;13_11_2020_6_35_11
2;19;1;noStructureCont;bars;4;11602;saddlebrown;white,yellow,orange,saddlebrown;210,300,390,480;150,180,210,240;32;4;4;dm2bywnah498o9e;true;16.69;390;195;psychophysics;29165;experimental_data;NULL;NULL;NULL;NULL;13_11_2020_6_35_11
2;19;1;noStructureCont;query;4;2550;saddlebrown;white,yellow,orange,saddlebrown;210,300,390,480;150,180,210,240;52;4;4;dm2bywnah498o9e;true;167.756;390;195;psychophysics;32732;experimental_data;NULL;NULL;NULL;NULL;13_11_2020_6_35_11
3;28;1;noStructureCont;bars;6;5583;red;black,pink,green,yellow,purple,red;120,210,300,390,480,570;180,210,240,270,300,330;32;6;6;dm2bywnah498o9e;true;168.171;390;195;psychophysics;40337;experimental_data;NULL;NULL;NULL;NULL;13_11_2020_6_35_11
3;28;1;noStructureCont;query;6;3564;red;black,pink,green,yellow,purple,red;120,210,300,390,480,570;180,210,240,270,300,330;54;6;6;dm2bywnah498o9e;true;16.666;390;195;psychophysics;44912;experimental_data;NULL;NULL;NULL;NULL;13_11_2020_6_35_11
4;18;1;noStructureCont;bars;4;10268;purple;purple,yellow,orange,red;210,300,390,480;240,270,300,330;32;1;1;dm2bywnah498o9e;true;168.579;390;195;psychophysics;57199;experimental_data;NULL;NULL;NULL;NULL;13_11_2020_6_35_11
4;18;1;noStructureCont;query;4;2630;purple;purple,yellow,orange,red;210,300,390,480;240,270,300,330;49;1;1;dm2bywnah498o9e;true;167.722;390;195;psychophysics;60842;experimental_data;NULL;NULL;NULL;NULL;13_11_2020_6_35_11
5;8;1;noStructureCont;bars;2;1550;black;green,black;300,39;150,18;32;2;2;dm2bywnah498o9e;true;16.666;390;195;psychophysics;64413;experimental_data;NULL;NULL;NULL;NULL;13_11_2020_6_35_11
5;8;1;noStructureCont;query;2;1244;black;green,black;300,39;150,18;50;2;2;dm2bywnah498o9e;true;16.666;390;195;psychophysics;66671;experimental_data;NULL;NULL;NULL;NULL;13_11_2020_6_35_11
6;25;1;noStructureCont;bars;6;6128;purple;green,white,pink,black,purple,orange;120,210,300,390,480,570;180,210,240,270,300,330;32;5;5;dm2bywnah498o9e;true;167.573;390;195;psychophysics;74815;experimental_data;NULL;NULL;NULL;NULL;13_11_2020_6_35_11
6;25;1;noStructureCont;query;6;3763;purple;green,white,pink,black,purple,orange;120,210,300,390,480,570;180,210,240,270,300,330;53;5;5;dm2bywnah498o9e;true;169.663;390;195;psychophysics;79592;experimental_data;NULL;NULL;NULL;NULL;13_11_2020_6_35_11
7;30;1;noStructureCont;bars;7;6015;purple;orange,red,saddlebrown,white,purple,pink,blue;120,210,300,390,480,570,660;150,180,210,240,270,300,330;32;5;5;dm2bywnah498o9e;true;168.057;390;195;psychophysics;87625;experimental_data;NULL;NULL;NULL;NULL;13_11_2020_6_35_11
7;30;1;noStructureCont;query;7;3946;purple;orange,red,saddlebrown,white,purple,pink,blue;120,210,300,390,480,570,660;150,180,210,240,270,300,330;53;5;5;dm2bywnah498o9e;true;167.369;390;195;psychophysics;92582;experimental_data;NULL;NULL;NULL;NULL;13_11_2020_6_35_11
8;26;1;noStructureCont;bars;6;5220;red;blue,white,pink,saddlebrown,yellow,red;120,210,300,390,480,570;150,180,210,240,270,300;32;6;6;dm2bywnah498o9e;true;168.278;390;195;psychophysics;99817;experimental_data;NULL;NULL;NULL;NULL;13_11_2020_6_35_11
8;26;1;noStructureCont;query;6;3071;red;blue,white,pink,saddlebrown,yellow,red;120,210,300,390,480,570;150,180,210,240,270,300;54;6;6;dm2bywnah498o9e;true;16.666;390;195;psychophysics;103935;experimental_data;NULL;NULL;NULL;NULL;13_11_2020_6_35_11
9;7;1;noStructureCont;bars;2;1618;purple;green,purple;300,39;150,18;32;2;2;dm2bywnah498o9e;true;16.666;390;195;psychophysics;107567;experimental_data;NULL;NULL;NULL;NULL;13_11_2020_6_35_11
9;7;1;noStructureCont;query;2;1261;purple;green,purple;300,39;150,18;50;2;2;dm2bywnah498o9e;true;16.666;390;195;psychophysics;109841;experimental_data;NULL;NULL;NULL;NULL;13_11_2020_6_35_11
10;4;1;noStructureCont;bars;1;1864;saddlebrown;saddlebrown;390;300;32;1;1;dm2bywnah498o9e;true;16.666;390;195;psychophysics;113727;experimental_data;NULL;NULL;NULL;NULL;13_11_2020_6_35_11
10;4;1;noStructureCont;query;1;1063;saddlebrown;saddlebrown;390;300;49;1;1;dm2bywnah498o9e;true;169.348;390;195;psychophysics;115798;experimental_data;NULL;NULL;NULL;NULL;13_11_2020_6_35_11
11;31;1;noStructureCont;bars;7;6529;pink;orange,green,red,yellow,black,pink,white;120,210,300,390,480,570,660;150,180,210,240,270,300,330;32;6;6;dm2bywnah498o9e;true;167.949;390;195;psychophysics;124344;experimental_data;NULL;NULL;NULL;NULL;13_11_2020_6_35_11
11;31;1;noStructureCont;query;7;3630;pink;orange,green,red,yellow,black,pink,white;120,210,300,390,480,570,660;150,180,210,240,270,300,330;54;6;6;dm2bywnah498o9e;true;16.666;390;195;psychophysics;128983;experimental_data;NULL;NULL;NULL;NULL;13_11_2020_6_35_11
12;21;1;noStructureCont;bars;5;5955;saddlebrown;yellow,saddlebrown,white,pink,blue;210,300,390,480,570;210,240,270,300,330;32;2;2;dm2bywnah498o9e;true;167.602;390;195;psychophysics;136952;experimental_data;NULL;NULL;NULL;NULL;13_11_2020_6_35_11
12;21;1;noStructureCont;query;5;2413;saddlebrown;yellow,saddlebrown,white,pink,blue;210,300,390,480,570;210,240,270,300,330;50;2;2;dm2bywnah498o9e;true;16.666;390;195;psychophysics;140376;experimental_data;NULL;NULL;NULL;NULL;13_11_2020_6_35_11
13;22;1;noStructureCont;bars;5;5066;blue;orange,pink,blue,yellow,red;210,300,390,480,570;210,240,270,300,330;32;3;3;dm2bywnah498o9e;true;16.721;390;195;psychophysics;147459;experimental_data;NULL;NULL;NULL;NULL;13_11_2020_6_35_11
13;22;1;noStructureCont;query;5;2387;blue;orange,pink,blue,yellow,red;210,300,390,480,570;210,240,270,300,330;51;3;3;dm2bywnah498o9e;true;16.666;390;195;psychophysics;150862;experimental_data;NULL;NULL;NULL;NULL;13_11_2020_6_35_11
14;5;1;noStructureCont;bars;2;1119;yellow;saddlebrown,yellow;300,39;150,18;32;2;2;dm2bywnah498o9e;true;16.666;390;195;psychophysics;153998;experimental_data;NULL;NULL;NULL;NULL;13_11_2020_6_35_11
14;5;1;noStructureCont;query;2;1033;yellow;saddlebrown,yellow;300,39;150,18;50;2;2;dm2bywnah498o9e;true;16.666;390;195;psychophysics;156046;experimental_data;NULL;NULL;NULL;NULL;13_11_2020_6_35_11
15;14;1;noStructureCont;bars;3;3873;white;white,purple,pink;300,390,480;180,210,240;32;1;1;dm2bywnah498o9e;true;16.666;390;195;psychophysics;161936;experimental_data;NULL;NULL;NULL;NULL;13_11_2020_6_35_11
15;14;1;noStructureCont;query;3;1179;white;white,purple,pink;300,390,480;180,210,240;49;1;1;dm2bywnah498o9e;true;16.666;390;195;psychophysics;164128;experimental_data;NULL;NULL;NULL;NULL;13_11_2020_6_35_11
16;13;1;noStructureCont;bars;3;3562;yellow;yellow,pink,saddlebrown;300,390,480;150,180,210;32;1;1;dm2bywnah498o9e;true;16.666;390;195;psychophysics;169708;experimental_data;NULL;NULL;NULL;NULL;13_11_2020_6_35_11
16;13;1;noStructureCont;query;3;1209;yellow;yellow,pink,saddlebrown;300,390,480;150,180,210;49;1;1;dm2bywnah498o9e;true;16.666;390;195;psychophysics;171928;experimental_data;NULL;NULL;NULL;NULL;13_11_2020_6_35_11
17;0;1;noStructureCont;bars;1;1146;pink;pink;390;300;32;1;1;dm2bywnah498o9e;true;16.666;390;195;psychophysics;175091;experimental_data;NULL;NULL;NULL;NULL;13_11_2020_6_35_11
17;0;1;noStructureCont;query;1;378;pink;pink;390;300;49;1;1;dm2bywnah498o9e;true;16.666;390;195;psychophysics;176480;experimental_data;NULL;NULL;NULL;NULL;13_11_2020_6_35_11
18;17;1;noStructureCont;bars;4;4258;blue;orange,pink,black,blue;210,300,390,480;210,240,270,300;32;4;4;dm2bywnah498o9e;true;16.666;390;195;psychophysics;182753;experimental_data;NULL;NULL;NULL;NULL;13_11_2020_6_35_11
18;17;1;noStructureCont;query;4;1593;blue;orange,pink,black,blue;210,300,390,480;210,240,270,300;52;4;4;dm2bywnah498o9e;true;16.666;390;195;psychophysics;185360;experimental_data;NULL;NULL;NULL;NULL;13_11_2020_6_35_11
19;3;1;noStructureCont;bars;1;1019;orange;orange;390;150;32;1;1;dm2bywnah498o9e;true;169.348;390;195;psychophysics;188426;experimental_data;NULL;NULL;NULL;NULL;13_11_2020_6_35_11
19;3;1;noStructureCont;query;1;450;orange;orange;390;150;49;1;1;dm2bywnah498o9e;true;16.666;390;195;psychophysics;189891;experimental_data;NULL;NULL;NULL;NULL;13_11_2020_6_35_11
20;11;1;noStructureCont;bars;3;5594;white;white,black,saddlebrown;300,390,480;270,300,330;32;1;1;dm2bywnah498o9e;true;16.666;390;195;psychophysics;197495;experimental_data;NULL;NULL;NULL;NULL;13_11_2020_6_35_11
20;11;1;noStructureCont;query;3;1753;white;white,black,saddlebrown;300,390,480;270,300,330;49;1;1;dm2bywnah498o9e;true;168.263;390;195;psychophysics;200263;experimental_data;NULL;NULL;NULL;NULL;13_11_2020_6_35_11
21;12;1;noStructureCont;bars;3;2970;black;orange,black,red;300,390,480;270,300,330;32;2;2;dm2bywnah498o9e;true;16.666;390;195;psychophysics;205248;experimental_data;NULL;NULL;NULL;NULL;13_11_2020_6_35_11
21;12;1;noStructureCont;query;3;1329;black;orange,black,red;300,390,480;270,300,330;50;2;2;dm2bywnah498o9e;true;16.666;390;195;psychophysics;207590;experimental_data;NULL;NULL;NULL;NULL;13_11_2020_6_35_11
22;20;1;noStructureCont;bars;5;6488;orange;black,saddlebrown,orange,pink,green;210,300,390,480,570;210,240,270,300,330;32;3;-30;dm2bywnah498o9e;invalid response;16.666;390;195;psychophysics;216090;experimental_data;NULL;NULL;NULL;NULL;13_11_2020_6_35_11
22;20;1;noStructureCont;query;5;435;orange;black,saddlebrown,orange,pink,green;210,300,390,480,570;210,240,270,300,330;18;3;-30;dm2bywnah498o9e;invalid response;16.666;390;195;psychophysics;217535;experimental_data;NULL;NULL;NULL;NULL;13_11_2020_6_35_11
23;34;1;noStructureCont;bars;7;6916;yellow;white,saddlebrown,blue,green,purple,yellow,red;120,210,300,390,480,570,660;150,180,210,240,270,300,330;32;6;5;dm2bywnah498o9e;false;167.469;390;195;psychophysics;230464;experimental_data;NULL;NULL;NULL;NULL;13_11_2020_6_35_11
23;34;1;noStructureCont;query;7;3937;yellow;white,saddlebrown,blue,green,purple,yellow,red;120,210,300,390,480,570,660;150,180,210,240,270,300,330;53;6;5;dm2bywnah498o9e;false;168.806;390;195;psychophysics;235416;experimental_data;NULL;NULL;NULL;NULL;13_11_2020_6_35_11
24;33;1;noStructureCont;bars;7;5092;saddlebrown;red,white,pink,blue,saddlebrown,purple,orange;120,210,300,390,480,570,660;150,180,210,240,270,300,330;32;5;5;dm2bywnah498o9e;true;16.831;390;195;psychophysics;242544;experimental_data;NULL;NULL;NULL;NULL;13_11_2020_6_35_11
24;33;1;noStructureCont;query;7;3176;saddlebrown;red,white,pink,blue,saddlebrown,purple,orange;120,210,300,390,480,570,660;150,180,210,240,270,300,330;53;5;5;dm2bywnah498o9e;true;16.666;390;195;psychophysics;246735;experimental_data;NULL;NULL;NULL;NULL;13_11_2020_6_35_11
25;24;1;noStructureCont;bars;5;7228;white;purple,white,blue,pink,orange;210,300,390,480,570;150,180,210,240,270;32;2;2;dm2bywnah498o9e;true;168.214;390;195;psychophysics;255976;experimental_data;NULL;NULL;NULL;NULL;13_11_2020_6_35_11
25;24;1;noStructureCont;query;5;1080;white;purple,white,blue,pink,orange;210,300,390,480,570;150,180,210,240,270;50;2;2;dm2bywnah498o9e;true;16.666;390;195;psychophysics;258063;experimental_data;NULL;NULL;NULL;NULL;13_11_2020_6_35_11
26;6;1;noStructureCont;bars;2;1866;yellow;purple,yellow;300,39;300,33;32;2;2;dm2bywnah498o9e;true;176.183;390;195;psychophysics;261942;experimental_data;NULL;NULL;NULL;NULL;13_11_2020_6_35_11
26;6;1;noStructureCont;query;2;1075;yellow;purple,yellow;300,39;300,33;50;2;2;dm2bywnah498o9e;true;16.666;390;195;psychophysics;264024;experimental_data;NULL;NULL;NULL;NULL;13_11_2020_6_35_11
27;23;1;noStructureCont;bars;5;6568;red;pink,purple,green,saddlebrown,red;210,300,390,480,570;210,240,270,300,330;32;5;5;dm2bywnah498o9e;true;16.751;390;195;psychophysics;272608;experimental_data;NULL;NULL;NULL;NULL;13_11_2020_6_35_11
27;23;1;noStructureCont;query;5;3055;red;pink,purple,green,saddlebrown,red;210,300,390,480,570;210,240,270,300,330;53;5;5;dm2bywnah498o9e;true;16.666;390;195;psychophysics;276679;experimental_data;NULL;NULL;NULL;NULL;13_11_2020_6_35_11
28;32;1;noStructureCont;bars;7;5549;white;saddlebrown,red,white,black,green,orange,purple;120,210,300,390,480,570,660;150,180,210,240,270,300,330;32;3;3;dm2bywnah498o9e;true;16.767;390;195;psychophysics;284243;experimental_data;NULL;NULL;NULL;NULL;13_11_2020_6_35_11
28;32;1;noStructureCont;query;7;2677;white;saddlebrown,red,white,black,green,orange,purple;120,210,300,390,480,570,660;150,180,210,240,270,300,330;51;3;3;dm2bywnah498o9e;true;16.666;390;195;psychophysics;287937;experimental_data;NULL;NULL;NULL;NULL;13_11_2020_6_35_11
29;10;1;noStructureCont;bars;3;4692;pink;purple,pink,orange;300,390,480;210,240,270;32;2;2;dm2bywnah498o9e;true;167.855;390;195;psychophysics;294642;experimental_data;NULL;NULL;NULL;NULL;13_11_2020_6_35_11
29;10;1;noStructureCont;query;3;958;pink;purple,pink,orange;300,390,480;210,240,270;50;2;2;dm2bywnah498o9e;true;16.666;390;195;psychophysics;296610;experimental_data;NULL;NULL;NULL;NULL;13_11_2020_6_35_11
30;1;1;noStructureCont;bars;1;1021;orange;orange;390;150;32;1;1;dm2bywnah498o9e;true;16.666;390;195;psychophysics;299648;experimental_data;NULL;NULL;NULL;NULL;13_11_2020_6_35_11
30;1;1;noStructureCont;query;1;307;orange;orange;390;150;49;1;1;dm2bywnah498o9e;true;16.666;390;195;psychophysics;300968;experimental_data;NULL;NULL;NULL;NULL;13_11_2020_6_35_11
31;16;1;noStructureCont;bars;4;5883;red;pink,yellow,saddlebrown,red;210,300,390,480;150,180,210,240;32;4;4;dm2bywnah498o9e;true;167.135;390;195;psychophysics;308865;experimental_data;NULL;NULL;NULL;NULL;13_11_2020_6_35_11
31;16;1;noStructureCont;query;4;1547;red;pink,yellow,saddlebrown,red;210,300,390,480;150,180,210,240;52;4;4;dm2bywnah498o9e;true;16.666;390;195;psychophysics;311424;experimental_data;NULL;NULL;NULL;NULL;13_11_2020_6_35_11
32;15;1;noStructureCont;bars;4;5165;red;red,saddlebrown,black,purple;210,300,390,480;240,270,300,330;32;1;1;dm2bywnah498o9e;true;16.666;390;195;psychophysics;318609;experimental_data;NULL;NULL;NULL;NULL;13_11_2020_6_35_11
32;15;1;noStructureCont;query;4;1008;red;red,saddlebrown,black,purple;210,300,390,480;240,270,300,330;49;1;1;dm2bywnah498o9e;true;169.485;390;195;psychophysics;320632;experimental_data;NULL;NULL;NULL;NULL;13_11_2020_6_35_11
33;29;1;noStructureCont;bars;6;5801;blue;green,orange,pink,red,blue,white;120,210,300,390,480,570;150,180,210,240,270,300;32;5;5;dm2bywnah498o9e;true;167.626;390;195;psychophysics;328448;experimental_data;NULL;NULL;NULL;NULL;13_11_2020_6_35_11
33;29;1;noStructureCont;query;6;2781;blue;green,orange,pink,red,blue,white;120,210,300,390,480,570;150,180,210,240,270,300;53;5;5;dm2bywnah498o9e;true;16.666;390;195;psychophysics;332240;experimental_data;NULL;NULL;NULL;NULL;13_11_2020_6_35_11
34;2;1;noStructureCont;bars;1;1005;green;green;390;330;32;1;1;dm2bywnah498o9e;true;16.666;390;195;psychophysics;335263;experimental_data;NULL;NULL;NULL;NULL;13_11_2020_6_35_11
34;2;1;noStructureCont;query;1;365;green;green;390;330;49;1;1;dm2bywnah498o9e;true;174.596;390;195;psychophysics;336663;experimental_data;NULL;NULL;NULL;NULL;13_11_2020_6_35_11
35;9;1;noStructureCont;bars;2;1795;pink;purple,pink;300,39;270,3;32;2;2;dm2bywnah498o9e;true;17.483;390;195;psychophysics;340475;experimental_data;NULL;NULL;NULL;NULL;13_11_2020_6_35_11
35;9;1;noStructureCont;query;2;1310;pink;purple,pink;300,39;270,3;50;2;2;dm2bywnah498o9e;true;16.666;390;195;psychophysics;342793;experimental_data;NULL;NULL;NULL;NULL;13_11_2020_6_35_11
NULL;NULL;0;NULL;end_of_block;NULL;6022;NULL;NULL;NULL;NULL;32;NULL;NULL;dm2bywnah498o9e;NULL;NULL;NULL;NULL;html-keyboard-response;349825;experimental_data;349912;583.187;0.914286;NULL;13_11_2020_6_35_11
36;0;2;sortStructureExp;bars;1;963;blue;blue;390;300;32;1;1;dm2bywnah498o9e;true;16.666;390;195;psychophysics;351797;experimental_data;NULL;NULL;NULL;NULL;13_11_2020_6_35_11
36;0;2;sortStructureExp;query;1;445;blue;blue;390;300;49;1;1;dm2bywnah498o9e;true;16.666;390;195;psychophysics;353257;experimental_data;NULL;NULL;NULL;NULL;13_11_2020_6_35_11
37;10;2;sortStructureExp;bars;3;6263;blue;blue,red,purple;390,480,300;210,240,270;32;1;2;dm2bywnah498o9e;false;16.666;390;195;psychophysics;361537;experimental_data;NULL;NULL;NULL;NULL;13_11_2020_6_35_11
37;10;2;sortStructureExp;query;3;999;blue;blue,red,purple;390,480,300;210,240,270;50;1;2;dm2bywnah498o9e;false;16.666;390;195;psychophysics;363546;experimental_data;NULL;NULL;NULL;NULL;13_11_2020_6_35_11
38;11;2;sortStructureExp;bars;3;4275;blue;blue,red,purple;390,300,480;270,300,330;32;1;2;dm2bywnah498o9e;false;16.666;390;195;psychophysics;369832;experimental_data;NULL;NULL;NULL;NULL;13_11_2020_6_35_11
38;11;2;sortStructureExp;query;3;1143;blue;blue,red,purple;390,300,480;270,300,330;50;1;2;dm2bywnah498o9e;false;16.666;390;195;psychophysics;371988;experimental_data;NULL;NULL;NULL;NULL;13_11_2020_6_35_11
39;30;2;sortStructureExp;bars;7;6549;red;white,orange,black,yellow,blue,red,purple;210,660,300,120,480,570,390;150,180,210,240,270,300,330;32;6;6;dm2bywnah498o9e;true;168.813;390;195;psychophysics;380554;experimental_data;NULL;NULL;NULL;NULL;13_11_2020_6_35_11
39;30;2;sortStructureExp;query;7;3518;red;white,orange,black,yellow,blue,red,purple;210,660,300,120,480,570,390;150,180,210,240,270,300,330;54;6;6;dm2bywnah498o9e;true;167.457;390;195;psychophysics;385079;experimental_data;NULL;NULL;NULL;NULL;13_11_2020_6_35_11
40;15;2;sortStructureExp;bars;4;6194;purple;blue,red,purple,black;480,390,210,300;240,270,300,330;32;3;1;dm2bywnah498o9e;false;168.019;390;195;psychophysics;393296;experimental_data;NULL;NULL;NULL;NULL;13_11_2020_6_35_11
40;15;2;sortStructureExp;query;4;2114;purple;blue,red,purple,black;480,390,210,300;240,270,300,330;49;3;1;dm2bywnah498o9e;false;16.666;390;195;psychophysics;396423;experimental_data;NULL;NULL;NULL;NULL;13_11_2020_6_35_11
41;34;2;sortStructureExp;bars;7;5868;saddlebrown;white,blue,red,purple,green,orange,saddlebrown;300,210,570,390,480,660,120;150,180,210,240,270,300,330;32;7;2;dm2bywnah498o9e;false;168.576;390;195;psychophysics;404307;experimental_data;NULL;NULL;NULL;NULL;13_11_2020_6_35_11
41;34;2;sortStructureExp;query;7;2637;saddlebrown;white,blue,red,purple,green,orange,saddlebrown;300,210,570,390,480,660,120;150,180,210,240,270,300,330;50;7;2;dm2bywnah498o9e;false;16.666;390;195;psychophysics;407954;experimental_data;NULL;NULL;NULL;NULL;13_11_2020_6_35_11
42;2;2;sortStructureExp;bars;1;1128;blue;blue;390;330;32;1;1;dm2bywnah498o9e;true;16.666;390;195;psychophysics;411093;experimental_data;NULL;NULL;NULL;NULL;13_11_2020_6_35_11
42;2;2;sortStructureExp;query;1;471;blue;blue;390;330;49;1;1;dm2bywnah498o9e;true;16.666;390;195;psychophysics;412576;experimental_data;NULL;NULL;NULL;NULL;13_11_2020_6_35_11
43;32;2;sortStructureExp;bars;7;5491;red;green,white,pink,blue,red,purple,saddlebrown;120,480,210,570,300,660,390;150,180,210,240,270,300,330;32;5;3;dm2bywnah498o9e;false;167.682;390;195;psychophysics;420082;experimental_data;NULL;NULL;NULL;NULL;13_11_2020_6_35_11
43;32;2;sortStructureExp;query;7;2767;red;green,white,pink,blue,red,purple,saddlebrown;120,480,210,570,300,660,390;150,180,210,240,270,300,330;51;5;3;dm2bywnah498o9e;false;16.666;390;195;psychophysics;423881;experimental_data;NULL;NULL;NULL;NULL;13_11_2020_6_35_11
44;24;2;sortStructureExp;bars;5;6662;blue;orange,black,blue,red,purple;210,300,570,390,480;150,180,210,240,270;32;3;5;dm2bywnah498o9e;false;16.666;390;195;psychophysics;432558;experimental_data;NULL;NULL;NULL;NULL;13_11_2020_6_35_11
44;24;2;sortStructureExp;query;5;2762;blue;orange,black,blue,red,purple;210,300,570,390,480;150,180,210,240,270;53;3;5;dm2bywnah498o9e;false;16.767;390;195;psychophysics;436338;experimental_data;NULL;NULL;NULL;NULL;13_11_2020_6_35_11
45;25;2;sortStructureExp;bars;6;5946;black;pink,black,green,blue,red,purple;120,570,210,300,480,390;180,210,240,270,300,330;32;2;5;dm2bywnah498o9e;false;168.072;390;195;psychophysics;444340;experimental_data;NULL;NULL;NULL;NULL;13_11_2020_6_35_11
45;25;2;sortStructureExp;query;6;3990;black;pink,black,green,blue,red,purple;120,570,210,300,480,390;180,210,240,270,300,330;53;2;5;dm2bywnah498o9e;false;16.666;390;195;psychophysics;449338;experimental_data;NULL;NULL;NULL;NULL;13_11_2020_6_35_11
46;5;2;sortStructureExp;bars;2;1915;blue;blue,red;300,39;150,18;32;1;1;dm2bywnah498o9e;true;16.666;390;195;psychophysics;453273;experimental_data;NULL;NULL;NULL;NULL;13_11_2020_6_35_11
46;5;2;sortStructureExp;query;2;1020;blue;blue,red;300,39;150,18;49;1;1;dm2bywnah498o9e;true;16.666;390;195;psychophysics;455314;experimental_data;NULL;NULL;NULL;NULL;13_11_2020_6_35_11
47;23;2;sortStructureExp;bars;5;5581;red;orange,blue,red,purple,saddlebrown;570,210,300,480,390;210,240,270,300,330;32;3;2;dm2bywnah498o9e;false;16.716;390;195;psychophysics;462913;experimental_data;NULL;NULL;NULL;NULL;13_11_2020_6_35_11
47;23;2;sortStructureExp;query;5;2510;red;orange,blue,red,purple,saddlebrown;570,210,300,480,390;210,240,270,300,330;50;3;2;dm2bywnah498o9e;false;167.771;390;195;psychophysics;466438;experimental_data;NULL;NULL;NULL;NULL;13_11_2020_6_35_11
48;3;2;sortStructureExp;bars;1;1009;blue;blue;390;150;32;1;1;dm2bywnah498o9e;true;16.666;390;195;psychophysics;469458;experimental_data;NULL;NULL;NULL;NULL;13_11_2020_6_35_11
48;3;2;sortStructureExp;query;1;368;blue;blue;390;150;49;1;1;dm2bywnah498o9e;true;16.666;390;195;psychophysics;470841;experimental_data;NULL;NULL;NULL;NULL;13_11_2020_6_35_11
49;21;2;sortStructureExp;bars;5;5045;blue;blue,red,purple,yellow,orange;480,390,300,570,210;210,240,270,300,330;32;1;4;dm2bywnah498o9e;false;171.134;390;195;psychophysics;477963;experimental_data;NULL;NULL;NULL;NULL;13_11_2020_6_35_11
49;21;2;sortStructureExp;query;5;2466;blue;blue,red,purple,yellow,orange;480,390,300,570,210;210,240,270,300,330;52;1;4;dm2bywnah498o9e;false;167.802;390;195;psychophysics;481441;experimental_data;NULL;NULL;NULL;NULL;13_11_2020_6_35_11
50;4;2;sortStructureExp;bars;1;1026;blue;blue;390;300;32;1;1;dm2bywnah498o9e;true;16.666;390;195;psychophysics;484483;experimental_data;NULL;NULL;NULL;NULL;13_11_2020_6_35_11
50;4;2;sortStructureExp;query;1;549;blue;blue;390;300;49;1;1;dm2bywnah498o9e;true;16.666;390;195;psychophysics;486041;experimental_data;NULL;NULL;NULL;NULL;13_11_2020_6_35_11
51;13;2;sortStructureExp;bars;3;1651;red;blue,red,purple;390,300,480;150,180,210;32;2;1;dm2bywnah498o9e;false;16.666;390;195;psychophysics;489707;experimental_data;NULL;NULL;NULL;NULL;13_11_2020_6_35_11
51;13;2;sortStructureExp;query;3;880;red;blue,red,purple;390,300,480;150,180,210;49;2;1;dm2bywnah498o9e;false;16.666;390;195;psychophysics;491602;experimental_data;NULL;NULL;NULL;NULL;13_11_2020_6_35_11
52;16;2;sortStructureExp;bars;4;3315;red;pink,blue,red,purple;300,210,390,480;150,180,210,240;32;3;3;dm2bywnah498o9e;true;16.666;390;195;psychophysics;496929;experimental_data;NULL;NULL;NULL;NULL;13_11_2020_6_35_11
52;16;2;sortStructureExp;query;4;1109;red;pink,blue,red,purple;300,210,390,480;150,180,210,240;51;3;3;dm2bywnah498o9e;true;16.666;390;195;psychophysics;499048;experimental_data;NULL;NULL;NULL;NULL;13_11_2020_6_35_11
53;20;2;sortStructureExp;bars;5;6144;red;blue,red,purple,white,black;570,390,210,300,480;210,240,270,300,330;32;2;3;dm2bywnah498o9e;false;171.315;390;195;psychophysics;507206;experimental_data;NULL;NULL;NULL;NULL;13_11_2020_6_35_11
53;20;2;sortStructureExp;query;5;1790;red;blue,red,purple,white,black;570,390,210,300,480;210,240,270,300,330;51;2;3;dm2bywnah498o9e;false;168.218;390;195;psychophysics;510019;experimental_data;NULL;NULL;NULL;NULL;13_11_2020_6_35_11
54;31;2;sortStructureExp;bars;7;6372;purple;black,green,blue,red,purple,yellow,orange;120,210,390,660,300,570,480;150,180,210,240,270,300,330;32;5;3;dm2bywnah498o9e;false;167.537;390;195;psychophysics;518410;experimental_data;NULL;NULL;NULL;NULL;13_11_2020_6_35_11
54;31;2;sortStructureExp;query;7;1944;purple;black,green,blue,red,purple,yellow,orange;120,210,390,660,300,570,480;150,180,210,240,270,300,330;51;5;3;dm2bywnah498o9e;false;16.666;390;195;psychophysics;521370;experimental_data;NULL;NULL;NULL;NULL;13_11_2020_6_35_11
55;33;2;sortStructureExp;bars;7;6103;white;saddlebrown,green,white,pink,blue,red,purple;660,120,210,480,570,390,300;150,180,210,240,270,300,330;32;3;1;dm2bywnah498o9e;false;16.666;390;195;psychophysics;529486;experimental_data;NULL;NULL;NULL;NULL;13_11_2020_6_35_11
55;33;2;sortStructureExp;query;7;1145;white;saddlebrown,green,white,pink,blue,red,purple;660,120,210,480,570,390,300;150,180,210,240,270,300,330;49;3;1;dm2bywnah498o9e;false;16.666;390;195;psychophysics;531641;experimental_data;NULL;NULL;NULL;NULL;13_11_2020_6_35_11
56;7;2;sortStructureExp;bars;2;1790;red;blue,red;390,3;150,18;32;2;1;dm2bywnah498o9e;false;16.666;390;195;psychophysics;535449;experimental_data;NULL;NULL;NULL;NULL;13_11_2020_6_35_11
56;7;2;sortStructureExp;query;2;935;red;blue,red;390,3;150,18;49;2;1;dm2bywnah498o9e;false;16.666;390;195;psychophysics;537393;experimental_data;NULL;NULL;NULL;NULL;13_11_2020_6_35_11
57;17;2;sortStructureExp;bars;4;6172;red;blue,red,purple,orange;210,390,300,480;210,240,270,300;32;2;2;dm2bywnah498o9e;true;167.568;390;195;psychophysics;545578;experimental_data;NULL;NULL;NULL;NULL;13_11_2020_6_35_11
57;17;2;sortStructureExp;query;4;1585;red;blue,red,purple,orange;210,390,300,480;210,240,270,300;50;2;2;dm2bywnah498o9e;true;16.666;390;195;psychophysics;548177;experimental_data;NULL;NULL;NULL;NULL;13_11_2020_6_35_11
58;1;2;sortStructureExp;bars;1;967;blue;blue;390;150;32;1;1;dm2bywnah498o9e;true;16.666;390;195;psychophysics;551161;experimental_data;NULL;NULL;NULL;NULL;13_11_2020_6_35_11
58;1;2;sortStructureExp;query;1;547;blue;blue;390;150;49;1;1;dm2bywnah498o9e;true;16.666;390;195;psychophysics;552721;experimental_data;NULL;NULL;NULL;NULL;13_11_2020_6_35_11
59;8;2;sortStructureExp;bars;2;1006;red;blue,red;300,39;150,18;32;2;2;dm2bywnah498o9e;true;16.666;390;195;psychophysics;555746;experimental_data;NULL;NULL;NULL;NULL;13_11_2020_6_35_11
59;8;2;sortStructureExp;query;2;948;red;blue,red;300,39;150,18;50;2;2;dm2bywnah498o9e;true;16.666;390;195;psychophysics;557707;experimental_data;NULL;NULL;NULL;NULL;13_11_2020_6_35_11
60;29;2;sortStructureExp;bars;6;5927;red;blue,red,purple,white,yellow,saddlebrown;300,210,570,480,120,390;150,180,210,240,270,300;32;2;2;dm2bywnah498o9e;true;167.132;390;195;psychophysics;565649;experimental_data;NULL;NULL;NULL;NULL;13_11_2020_6_35_11
60;29;2;sortStructureExp;query;6;2311;red;blue,red,purple,white,yellow,saddlebrown;300,210,570,480,120,390;150,180,210,240,270,300;50;2;2;dm2bywnah498o9e;true;16.666;390;195;psychophysics;568969;experimental_data;NULL;NULL;NULL;NULL;13_11_2020_6_35_11
61;27;2;sortStructureExp;bars;6;5286;blue;white,green,pink,blue,red,purple;390,120,210,480,300,570;180,210,240,270,300,330;32;4;4;dm2bywnah498o9e;true;172.651;390;195;psychophysics;576272;experimental_data;NULL;NULL;NULL;NULL;13_11_2020_6_35_11
61;27;2;sortStructureExp;query;6;2199;blue;white,green,pink,blue,red,purple;390,120,210,480,300,570;180,210,240,270,300,330;52;4;4;dm2bywnah498o9e;true;167.932;390;195;psychophysics;579487;experimental_data;NULL;NULL;NULL;NULL;13_11_2020_6_35_11
62;9;2;sortStructureExp;bars;2;1045;red;blue,red;390,3;270,3;32;2;1;dm2bywnah498o9e;false;16.666;390;195;psychophysics;582553;experimental_data;NULL;NULL;NULL;NULL;13_11_2020_6_35_11
62;9;2;sortStructureExp;query;2;991;red;blue,red;390,3;270,3;49;2;1;dm2bywnah498o9e;false;16.666;390;195;psychophysics;584553;experimental_data;NULL;NULL;NULL;NULL;13_11_2020_6_35_11
63;12;2;sortStructureExp;bars;3;2646;purple;blue,red,purple;390,480,300;270,300,330;32;3;1;dm2bywnah498o9e;false;16.666;390;195;psychophysics;589221;experimental_data;NULL;NULL;NULL;NULL;13_11_2020_6_35_11
63;12;2;sortStructureExp;query;3;1134;purple;blue,red,purple;390,480,300;270,300,330;49;3;1;dm2bywnah498o9e;false;16.666;390;195;psychophysics;591362;experimental_data;NULL;NULL;NULL;NULL;13_11_2020_6_35_11
64;26;2;sortStructureExp;bars;6;5044;pink;saddlebrown,white,blue,red,purple,pink;210,120,390,570,300,480;150,180,210,240,270,300;32;6;5;dm2bywnah498o9e;false;16.666;390;195;psychophysics;598430;experimental_data;NULL;NULL;NULL;NULL;13_11_2020_6_35_11
64;26;2;sortStructureExp;query;6;3045;pink;saddlebrown,white,blue,red,purple,pink;210,120,390,570,300,480;150,180,210,240,270,300;53;6;5;dm2bywnah498o9e;false;16.666;390;195;psychophysics;602485;experimental_data;NULL;NULL;NULL;NULL;13_11_2020_6_35_11
65;18;2;sortStructureExp;bars;4;5472;red;green,blue,red,purple;210,300,390,480;240,270,300,330;32;3;3;dm2bywnah498o9e;true;167.682;390;195;psychophysics;609969;experimental_data;NULL;NULL;NULL;NULL;13_11_2020_6_35_11
65;18;2;sortStructureExp;query;4;2075;red;green,blue,red,purple;210,300,390,480;240,270,300,330;51;3;3;dm2bywnah498o9e;true;16.666;390;195;psychophysics;613051;experimental_data;NULL;NULL;NULL;NULL;13_11_2020_6_35_11
66;6;2;sortStructureExp;bars;2;1214;blue;blue,red;390,3;300,33;32;1;2;dm2bywnah498o9e;false;16.666;390;195;psychophysics;616285;experimental_data;NULL;NULL;NULL;NULL;13_11_2020_6_35_11
66;6;2;sortStructureExp;query;2;1064;blue;blue,red;390,3;300,33;50;1;2;dm2bywnah498o9e;false;16.666;390;195;psychophysics;618369;experimental_data;NULL;NULL;NULL;NULL;13_11_2020_6_35_11
67;19;2;sortStructureExp;bars;4;5314;red;saddlebrown,blue,red,purple;390,210,480,300;150,180,210,240;32;3;4;dm2bywnah498o9e;false;167.184;390;195;psychophysics;625700;experimental_data;NULL;NULL;NULL;NULL;13_11_2020_6_35_11
67;19;2;sortStructureExp;query;4;2263;red;saddlebrown,blue,red,purple;390,210,480,300;150,180,210,240;52;3;4;dm2bywnah498o9e;false;16.666;390;195;psychophysics;628969;experimental_data;NULL;NULL;NULL;NULL;13_11_2020_6_35_11
68;14;2;sortStructureExp;bars;3;1835;blue;blue,red,purple;300,390,480;180,210,240;32;1;1;dm2bywnah498o9e;true;16.666;390;195;psychophysics;632820;experimental_data;NULL;NULL;NULL;NULL;13_11_2020_6_35_11
68;14;2;sortStructureExp;query;3;1045;blue;blue,red,purple;300,390,480;180,210,240;49;1;1;dm2bywnah498o9e;true;16.666;390;195;psychophysics;634885;experimental_data;NULL;NULL;NULL;NULL;13_11_2020_6_35_11
69;22;2;sortStructureExp;bars;5;6755;black;blue,red,purple,black,white;390,480,210,300,570;210,240,270,300,330;32;4;2;dm2bywnah498o9e;false;167.904;390;195;psychophysics;643660;experimental_data;NULL;NULL;NULL;NULL;13_11_2020_6_35_11
69;22;2;sortStructureExp;query;5;1951;black;blue,red,purple,black,white;390,480,210,300,570;210,240,270,300,330;50;4;2;dm2bywnah498o9e;false;168.097;390;195;psychophysics;646626;experimental_data;NULL;NULL;NULL;NULL;13_11_2020_6_35_11
70;28;2;sortStructureExp;bars;6;8551;purple;orange,blue,red,purple,yellow,black;570,300,210,120,480,390;180,210,240,270,300,330;32;4;1;dm2bywnah498o9e;false;167.314;390;195;psychophysics;657189;experimental_data;NULL;NULL;NULL;NULL;13_11_2020_6_35_11
70;28;2;sortStructureExp;query;6;3431;purple;orange,blue,red,purple,yellow,black;570,300,210,120,480,390;180,210,240,270,300,330;49;4;1;dm2bywnah498o9e;false;16.666;390;195;psychophysics;661634;experimental_data;NULL;NULL;NULL;NULL;13_11_2020_6_35_11
NULL;NULL;0;NULL;end_of_block;NULL;2440;NULL;NULL;NULL;NULL;32;NULL;NULL;dm2bywnah498o9e;NULL;NULL;NULL;NULL;html-keyboard-response;665082;experimental_data;665169;110.862;0.4;NULL;13_11_2020_6_35_11
71;11;3;queryStructureCont;bars;3;2210;purple;orange,black,purple;300,390,480;270,300,330;32;3;3;dm2bywnah498o9e;true;16.666;390;195;psychophysics;668301;experimental_data;NULL;NULL;NULL;NULL;13_11_2020_6_35_11
71;11;3;queryStructureCont;query;3;896;purple;orange,black,purple;300,390,480;270,300,330;51;3;3;dm2bywnah498o9e;true;16.666;390;195;psychophysics;670210;experimental_data;NULL;NULL;NULL;NULL;13_11_2020_6_35_11
72;23;3;queryStructureCont;bars;5;5337;yellow;green,orange,purple,red,yellow;210,300,390,480,570;210,240,270,300,330;32;5;5;dm2bywnah498o9e;true;169.855;390;195;psychophysics;677562;experimental_data;NULL;NULL;NULL;NULL;13_11_2020_6_35_11
72;23;3;queryStructureCont;query;5;2164;yellow;green,orange,purple,red,yellow;210,300,390,480,570;210,240,270,300,330;53;5;5;dm2bywnah498o9e;true;16.666;390;195;psychophysics;680738;experimental_data;NULL;NULL;NULL;NULL;13_11_2020_6_35_11
73;3;3;queryStructureCont;bars;1;977;orange;orange;390;150;32;1;1;dm2bywnah498o9e;true;16.666;390;195;psychophysics;683730;experimental_data;NULL;NULL;NULL;NULL;13_11_2020_6_35_11
73;3;3;queryStructureCont;query;1;413;orange;orange;390;150;49;1;1;dm2bywnah498o9e;true;173.906;390;195;psychophysics;685154;experimental_data;NULL;NULL;NULL;NULL;13_11_2020_6_35_11
74;31;3;queryStructureCont;bars;7;5967;purple;black,pink,red,orange,yellow,white,purple;120,210,300,390,480,570,660;150,180,210,240,270,300,330;32;7;7;dm2bywnah498o9e;true;16.666;390;195;psychophysics;693139;experimental_data;NULL;NULL;NULL;NULL;13_11_2020_6_35_11
74;31;3;queryStructureCont;query;7;3227;purple;black,pink,red,orange,yellow,white,purple;120,210,300,390,480,570,660;150,180,210,240,270,300,330;55;7;7;dm2bywnah498o9e;true;16.666;390;195;psychophysics;697377;experimental_data;NULL;NULL;NULL;NULL;13_11_2020_6_35_11
75;1;3;queryStructureCont;bars;1;833;orange;orange;390;150;32;1;1;dm2bywnah498o9e;true;16.666;390;195;psychophysics;700225;experimental_data;NULL;NULL;NULL;NULL;13_11_2020_6_35_11
75;1;3;queryStructureCont;query;1;478;orange;orange;390;150;49;1;1;dm2bywnah498o9e;true;16.666;390;195;psychophysics;701720;experimental_data;NULL;NULL;NULL;NULL;13_11_2020_6_35_11
76;13;3;queryStructureCont;bars;3;2282;green;orange,pink,green;300,390,480;150,180,210;32;3;3;dm2bywnah498o9e;true;167.885;390;195;psychophysics;706020;experimental_data;NULL;NULL;NULL;NULL;13_11_2020_6_35_11
76;13;3;queryStructureCont;query;3;1070;green;orange,pink,green;300,390,480;150,180,210;51;3;3;dm2bywnah498o9e;true;16.666;390;195;psychophysics;708107;experimental_data;NULL;NULL;NULL;NULL;13_11_2020_6_35_11
77;10;3;queryStructureCont;bars;3;2783;black;blue,yellow,black;300,390,480;210,240,270;32;3;3;dm2bywnah498o9e;true;168.692;390;195;psychophysics;712907;experimental_data;NULL;NULL;NULL;NULL;13_11_2020_6_35_11
77;10;3;queryStructureCont;query;3;1117;black;blue,yellow,black;300,390,480;210,240,270;51;3;3;dm2bywnah498o9e;true;16.666;390;195;psychophysics;715043;experimental_data;NULL;NULL;NULL;NULL;13_11_2020_6_35_11
78;14;3;queryStructureCont;bars;3;2962;black;red,green,black;300,390,480;180,210,240;32;3;3;dm2bywnah498o9e;true;16.666;390;195;psychophysics;720019;experimental_data;NULL;NULL;NULL;NULL;13_11_2020_6_35_11
78;14;3;queryStructureCont;query;3;1430;black;red,green,black;300,390,480;180,210,240;51;3;3;dm2bywnah498o9e;true;16.666;390;195;psychophysics;722458;experimental_data;NULL;NULL;NULL;NULL;13_11_2020_6_35_11
79;12;3;queryStructureCont;bars;3;3035;yellow;orange,pink,yellow;300,390,480;270,300,330;32;3;3;dm2bywnah498o9e;true;16.666;390;195;psychophysics;727507;experimental_data;NULL;NULL;NULL;NULL;13_11_2020_6_35_11
79;12;3;queryStructureCont;query;3;1051;yellow;orange,pink,yellow;300,390,480;270,300,330;51;3;3;dm2bywnah498o9e;true;16.666;390;195;psychophysics;729578;experimental_data;NULL;NULL;NULL;NULL;13_11_2020_6_35_11
80;24;3;queryStructureCont;bars;5;6996;purple;blue,pink,orange,black,purple;210,300,390,480,570;150,180,210,240,270;32;5;5;dm2bywnah498o9e;true;167.862;390;195;psychophysics;738588;experimental_data;NULL;NULL;NULL;NULL;13_11_2020_6_35_11
80;24;3;queryStructureCont;query;5;2415;purple;blue,pink,orange,black,purple;210,300,390,480,570;150,180,210,240,270;53;5;5;dm2bywnah498o9e;true;16.666;390;195;psychophysics;742018;experimental_data;NULL;NULL;NULL;NULL;13_11_2020_6_35_11
81;22;3;queryStructureCont;bars;5;6935;saddlebrown;blue,red,green,black,saddlebrown;210,300,390,480,570;210,240,270,300,330;32;5;5;dm2bywnah498o9e;true;167.062;390;195;psychophysics;750971;experimental_data;NULL;NULL;NULL;NULL;13_11_2020_6_35_11
81;22;3;queryStructureCont;query;5;2007;saddlebrown;blue,red,green,black,saddlebrown;210,300,390,480,570;210,240,270,300,330;53;5;5;dm2bywnah498o9e;true;168.061;390;195;psychophysics;753994;experimental_data;NULL;NULL;NULL;NULL;13_11_2020_6_35_11
82;5;3;queryStructureCont;bars;2;1107;purple;black,purple;300,39;150,18;32;2;2;dm2bywnah498o9e;true;16.666;390;195;psychophysics;757116;experimental_data;NULL;NULL;NULL;NULL;13_11_2020_6_35_11
82;5;3;queryStructureCont;query;2;948;purple;black,purple;300,39;150,18;50;2;2;dm2bywnah498o9e;true;16.666;390;195;psychophysics;759074;experimental_data;NULL;NULL;NULL;NULL;13_11_2020_6_35_11
83;6;3;queryStructureCont;bars;2;1595;black;orange,black;300,39;300,33;32;2;2;dm2bywnah498o9e;true;16.666;390;195;psychophysics;762686;experimental_data;NULL;NULL;NULL;NULL;13_11_2020_6_35_11
83;6;3;queryStructureCont;query;2;1164;black;orange,black;300,39;300,33;50;2;2;dm2bywnah498o9e;true;169.075;390;195;psychophysics;764868;experimental_data;NULL;NULL;NULL;NULL;13_11_2020_6_35_11
84;8;3;queryStructureCont;bars;2;2389;purple;red,purple;300,39;150,18;32;2;2;dm2bywnah498o9e;true;16.666;390;195;psychophysics;769275;experimental_data;NULL;NULL;NULL;NULL;13_11_2020_6_35_11
84;8;3;queryStructureCont;query;2;962;purple;red,purple;300,39;150,18;50;2;2;dm2bywnah498o9e;true;16.666;390;195;psychophysics;771252;experimental_data;NULL;NULL;NULL;NULL;13_11_2020_6_35_11
85;20;3;queryStructureCont;bars;5;6128;orange;saddlebrown,white,yellow,black,orange;210,300,390,480,570;210,240,270,300,330;32;5;5;dm2bywnah498o9e;true;167.115;390;195;psychophysics;779397;experimental_data;NULL;NULL;NULL;NULL;13_11_2020_6_35_11
85;20;3;queryStructureCont;query;5;2152;orange;saddlebrown,white,yellow,black,orange;210,300,390,480,570;210,240,270,300,330;53;5;5;dm2bywnah498o9e;true;167.962;390;195;psychophysics;782571;experimental_data;NULL;NULL;NULL;NULL;13_11_2020_6_35_11
86;19;3;queryStructureCont;bars;4;3693;white;pink,black,green,white;210,300,390,480;150,180,210,240;32;4;4;dm2bywnah498o9e;true;168.182;390;195;psychophysics;788285;experimental_data;NULL;NULL;NULL;NULL;13_11_2020_6_35_11
86;19;3;queryStructureCont;query;4;1320;white;pink,black,green,white;210,300,390,480;150,180,210,240;52;4;4;dm2bywnah498o9e;true;16.666;390;195;psychophysics;790613;experimental_data;NULL;NULL;NULL;NULL;13_11_2020_6_35_11
87;28;3;queryStructureCont;bars;6;5206;orange;saddlebrown,blue,yellow,black,purple,orange;120,210,300,390,480,570;180,210,240,270,300,330;32;6;6;dm2bywnah498o9e;true;167.735;390;195;psychophysics;797834;experimental_data;NULL;NULL;NULL;NULL;13_11_2020_6_35_11
87;28;3;queryStructureCont;query;6;3840;orange;saddlebrown,blue,yellow,black,purple,orange;120,210,300,390,480,570;180,210,240,270,300,330;54;6;6;dm2bywnah498o9e;true;16.666;390;195;psychophysics;802684;experimental_data;NULL;NULL;NULL;NULL;13_11_2020_6_35_11
88;21;3;queryStructureCont;bars;5;5634;saddlebrown;red,pink,blue,purple,saddlebrown;210,300,390,480,570;210,240,270,300,330;32;5;5;dm2bywnah498o9e;true;169.162;390;195;psychophysics;810338;experimental_data;NULL;NULL;NULL;NULL;13_11_2020_6_35_11
88;21;3;queryStructureCont;query;5;2380;saddlebrown;red,pink,blue,purple,saddlebrown;210,300,390,480,570;210,240,270,300,330;53;5;5;dm2bywnah498o9e;true;167.817;390;195;psychophysics;813766;experimental_data;NULL;NULL;NULL;NULL;13_11_2020_6_35_11
89;16;3;queryStructureCont;bars;4;4578;white;orange,purple,yellow,white;210,300,390,480;150,180,210,240;32;4;4;dm2bywnah498o9e;true;167.268;390;195;psychophysics;820365;experimental_data;NULL;NULL;NULL;NULL;13_11_2020_6_35_11
89;16;3;queryStructureCont;query;4;1219;white;orange,purple,yellow,white;210,300,390,480;150,180,210,240;52;4;4;dm2bywnah498o9e;true;16.666;390;195;psychophysics;822599;experimental_data;NULL;NULL;NULL;NULL;13_11_2020_6_35_11
90;15;3;queryStructureCont;bars;4;3803;black;green,yellow,orange,black;210,300,390,480;240,270,300,330;32;4;4;dm2bywnah498o9e;true;16.666;390;195;psychophysics;828421;experimental_data;NULL;NULL;NULL;NULL;13_11_2020_6_35_11
90;15;3;queryStructureCont;query;4;1059;black;green,yellow,orange,black;210,300,390,480;240,270,300,330;52;4;4;dm2bywnah498o9e;true;16.666;390;195;psychophysics;830516;experimental_data;NULL;NULL;NULL;NULL;13_11_2020_6_35_11
91;25;3;queryStructureCont;bars;6;5637;orange;black,pink,saddlebrown,blue,green,orange;120,210,300,390,480,570;180,210,240,270,300,330;32;6;6;dm2bywnah498o9e;true;168.152;390;195;psychophysics;838165;experimental_data;NULL;NULL;NULL;NULL;13_11_2020_6_35_11
91;25;3;queryStructureCont;query;6;2636;orange;black,pink,saddlebrown,blue,green,orange;120,210,300,390,480,570;180,210,240,270,300,330;54;6;6;dm2bywnah498o9e;true;16.666;390;195;psychophysics;841811;experimental_data;NULL;NULL;NULL;NULL;13_11_2020_6_35_11
92;30;3;queryStructureCont;bars;7;4617;red;purple,black,blue,white,green,saddlebrown,red;120,210,300,390,480,570,660;150,180,210,240,270,300,330;32;7;7;dm2bywnah498o9e;true;167.876;390;195;psychophysics;848443;experimental_data;NULL;NULL;NULL;NULL;13_11_2020_6_35_11
92;30;3;queryStructureCont;query;7;3064;red;purple,black,blue,white,green,saddlebrown,red;120,210,300,390,480,570,660;150,180,210,240,270,300,330;55;7;7;dm2bywnah498o9e;true;16.666;390;195;psychophysics;852523;experimental_data;NULL;NULL;NULL;NULL;13_11_2020_6_35_11
93;18;3;queryStructureCont;bars;4;3568;green;orange,white,red,green;210,300,390,480;240,270,300,330;32;4;4;dm2bywnah498o9e;true;167.446;390;195;psychophysics;858107;experimental_data;NULL;NULL;NULL;NULL;13_11_2020_6_35_11
93;18;3;queryStructureCont;query;4;1249;green;orange,white,red,green;210,300,390,480;240,270,300,330;52;4;4;dm2bywnah498o9e;true;16.666;390;195;psychophysics;860372;experimental_data;NULL;NULL;NULL;NULL;13_11_2020_6_35_11
94;4;3;queryStructureCont;bars;1;879;white;white;390;300;32;1;1;dm2bywnah498o9e;true;16.666;390;195;psychophysics;863267;experimental_data;NULL;NULL;NULL;NULL;13_11_2020_6_35_11
94;4;3;queryStructureCont;query;1;289;white;white;390;300;49;1;1;dm2bywnah498o9e;true;16.666;390;195;psychophysics;864571;experimental_data;NULL;NULL;NULL;NULL;13_11_2020_6_35_11
95;9;3;queryStructureCont;bars;2;1169;green;red,green;300,39;270,3;32;2;2;dm2bywnah498o9e;true;16.666;390;195;psychophysics;867755;experimental_data;NULL;NULL;NULL;NULL;13_11_2020_6_35_11
95;9;3;queryStructureCont;query;2;849;green;red,green;300,39;270,3;50;2;2;dm2bywnah498o9e;true;16.666;390;195;psychophysics;869619;experimental_data;NULL;NULL;NULL;NULL;13_11_2020_6_35_11
96;34;3;queryStructureCont;bars;7;5882;pink;blue,yellow,orange,purple,saddlebrown,black,pink;120,210,300,390,480,570,660;150,180,210,240,270,300,330;32;7;7;dm2bywnah498o9e;true;167.612;390;195;psychophysics;877518;experimental_data;NULL;NULL;NULL;NULL;13_11_2020_6_35_11
96;34;3;queryStructureCont;query;7;4917;pink;blue,yellow,orange,purple,saddlebrown,black,pink;120,210,300,390,480,570,660;150,180,210,240,270,300,330;55;7;7;dm2bywnah498o9e;true;16.666;390;195;psychophysics;883451;experimental_data;NULL;NULL;NULL;NULL;13_11_2020_6_35_11
97;0;3;queryStructureCont;bars;1;837;white;white;390;300;32;1;1;dm2bywnah498o9e;true;16.666;390;195;psychophysics;886307;experimental_data;NULL;NULL;NULL;NULL;13_11_2020_6_35_11
97;0;3;queryStructureCont;query;1;348;white;white;390;300;49;1;1;dm2bywnah498o9e;true;208.325;390;195;psychophysics;887668;experimental_data;NULL;NULL;NULL;NULL;13_11_2020_6_35_11
98;29;3;queryStructureCont;bars;6;4949;yellow;red,pink,black,white,saddlebrown,yellow;120,210,300,390,480,570;150,180,210,240,270,300;32;6;6;dm2bywnah498o9e;true;16.666;390;195;psychophysics;894635;experimental_data;NULL;NULL;NULL;NULL;13_11_2020_6_35_11
98;29;3;queryStructureCont;query;6;3253;yellow;red,pink,black,white,saddlebrown,yellow;120,210,300,390,480,570;150,180,210,240,270,300;54;6;6;dm2bywnah498o9e;true;167.519;390;195;psychophysics;898901;experimental_data;NULL;NULL;NULL;NULL;13_11_2020_6_35_11
99;32;3;queryStructureCont;bars;7;5588;yellow;red,saddlebrown,purple,white,pink,green,yellow;120,210,300,390,480,570,660;150,180,210,240,270,300,330;32;7;7;dm2bywnah498o9e;true;169.709;390;195;psychophysics;906507;experimental_data;NULL;NULL;NULL;NULL;13_11_2020_6_35_11
99;32;3;queryStructureCont;query;7;3386;yellow;red,saddlebrown,purple,white,pink,green,yellow;120,210,300,390,480,570,660;150,180,210,240,270,300,330;55;7;7;dm2bywnah498o9e;true;168.327;390;195;psychophysics;910908;experimental_data;NULL;NULL;NULL;NULL;13_11_2020_6_35_11
100;27;3;queryStructureCont;bars;6;5208;purple;red,orange,pink,saddlebrown,white,purple;120,210,300,390,480,570;180,210,240,270,300,330;32;6;6;dm2bywnah498o9e;true;167.196;390;195;psychophysics;918131;experimental_data;NULL;NULL;NULL;NULL;13_11_2020_6_35_11
100;27;3;queryStructureCont;query;6;3191;purple;red,orange,pink,saddlebrown,white,purple;120,210,300,390,480,570;180,210,240,270,300,330;54;6;6;dm2bywnah498o9e;true;167.537;390;195;psychophysics;922333;experimental_data;NULL;NULL;NULL;NULL;13_11_2020_6_35_11
101;33;3;queryStructureCont;bars;7;5270;blue;orange,green,white,purple,saddlebrown,yellow,blue;120,210,300,390,480,570,660;150,180,210,240,270,300,330;32;7;7;dm2bywnah498o9e;true;170.435;390;195;psychophysics;929618;experimental_data;NULL;NULL;NULL;NULL;13_11_2020_6_35_11
101;33;3;queryStructureCont;query;7;3531;blue;orange,green,white,purple,saddlebrown,yellow,blue;120,210,300,390,480,570,660;150,180,210,240,270,300,330;55;7;7;dm2bywnah498o9e;true;169.052;390;195;psychophysics;934165;experimental_data;NULL;NULL;NULL;NULL;13_11_2020_6_35_11
102;2;3;queryStructureCont;bars;1;1153;green;green;390;330;32;1;1;dm2bywnah498o9e;true;16.666;390;195;psychophysics;937339;experimental_data;NULL;NULL;NULL;NULL;13_11_2020_6_35_11
102;2;3;queryStructureCont;query;1;881;green;green;390;330;49;1;1;dm2bywnah498o9e;true;16.666;390;195;psychophysics;939234;experimental_data;NULL;NULL;NULL;NULL;13_11_2020_6_35_11
103;26;3;queryStructureCont;bars;6;6231;blue;orange,purple,green,black,saddlebrown,blue;120,210,300,390,480,570;150,180,210,240,270,300;32;6;6;dm2bywnah498o9e;true;16.666;390;195;psychophysics;947486;experimental_data;NULL;NULL;NULL;NULL;13_11_2020_6_35_11
103;26;3;queryStructureCont;query;6;2960;blue;orange,purple,green,black,saddlebrown,blue;120,210,300,390,480,570;150,180,210,240,270,300;54;6;6;dm2bywnah498o9e;true;167.607;390;195;psychophysics;951461;experimental_data;NULL;NULL;NULL;NULL;13_11_2020_6_35_11
104;17;3;queryStructureCont;bars;4;4362;white;green,blue,orange,white;210,300,390,480;210,240,270,300;32;4;4;dm2bywnah498o9e;true;16.666;390;195;psychophysics;957836;experimental_data;NULL;NULL;NULL;NULL;13_11_2020_6_35_11
104;17;3;queryStructureCont;query;4;1083;white;green,blue,orange,white;210,300,390,480;210,240,270,300;52;4;4;dm2bywnah498o9e;true;16.666;390;195;psychophysics;959940;experimental_data;NULL;NULL;NULL;NULL;13_11_2020_6_35_11
105;7;3;queryStructureCont;bars;2;1391;yellow;orange,yellow;300,39;150,18;32;2;2;dm2bywnah498o9e;true;16.666;390;195;psychophysics;963348;experimental_data;NULL;NULL;NULL;NULL;13_11_2020_6_35_11
105;7;3;queryStructureCont;query;2;960;yellow;orange,yellow;300,39;150,18;50;2;2;dm2bywnah498o9e;true;16.666;390;195;psychophysics;965316;experimental_data;NULL;NULL;NULL;NULL;13_11_2020_6_35_11
NULL;NULL;0;NULL;end_of_block;NULL;5934;NULL;NULL;NULL;NULL;32;NULL;NULL;dm2bywnah498o9e;NULL;NULL;NULL;NULL;html-keyboard-response;972262;experimental_data;972349;162.058;1;NULL;13_11_2020_6_35_11
106;6;4;queryStructureExp;bars;2;1701;red;pink,red;390,3;300,33;32;2;1;dm2bywnah498o9e;false;16.666;390;195;psychophysics;974972;experimental_data;NULL;NULL;NULL;NULL;13_11_2020_6_35_11
106;6;4;queryStructureExp;query;2;1313;red;pink,red;390,3;300,33;49;2;1;dm2bywnah498o9e;false;16.666;390;195;psychophysics;977299;experimental_data;NULL;NULL;NULL;NULL;13_11_2020_6_35_11
107;33;4;queryStructureExp;bars;7;7521;pink;purple,red,white,orange,black,green,pink;660,120,210,480,570,390,300;150,180,210,240,270,300,330;32;7;3;dm2bywnah498o9e;false;169.288;390;195;psychophysics;986837;experimental_data;NULL;NULL;NULL;NULL;13_11_2020_6_35_11
107;33;4;queryStructureExp;query;7;2609;pink;purple,red,white,orange,black,green,pink;660,120,210,480,570,390,300;150,180,210,240,270,300,330;51;7;3;dm2bywnah498o9e;false;167.735;390;195;psychophysics;990461;experimental_data;NULL;NULL;NULL;NULL;13_11_2020_6_35_11
108;30;4;queryStructureExp;bars;7;5571;orange;black,green,blue,red,purple,white,orange;210,660,300,120,480,570,390;150,180,210,240,270,300,330;32;7;4;dm2bywnah498o9e;false;16.666;390;195;psychophysics;998045;experimental_data;NULL;NULL;NULL;NULL;13_11_2020_6_35_11
108;30;4;queryStructureExp;query;7;2333;orange;black,green,blue,red,purple,white,orange;210,660,300,120,480,570,390;150,180,210,240,270,300,330;52;7;4;dm2bywnah498o9e;false;16.666;390;195;psychophysics;1001388;experimental_data;NULL;NULL;NULL;NULL;13_11_2020_6_35_11
109;27;4;queryStructureExp;bars;6;7120;green;red,white,saddlebrown,blue,black,green;390,120,210,480,300,570;180,210,240,270,300,330;32;6;4;dm2bywnah498o9e;false;167.052;390;195;psychophysics;1010526;experimental_data;NULL;NULL;NULL;NULL;13_11_2020_6_35_11
109;27;4;queryStructureExp;query;6;7140;green;red,white,saddlebrown,blue,black,green;390,120,210,480,300,570;180,210,240,270,300,330;52;6;4;dm2bywnah498o9e;false;16.666;390;195;psychophysics;1018677;experimental_data;NULL;NULL;NULL;NULL;13_11_2020_6_35_11
110;0;4;queryStructureExp;bars;1;1018;white;white;390;300;32;1;1;dm2bywnah498o9e;true;16.666;390;195;psychophysics;1021717;experimental_data;NULL;NULL;NULL;NULL;13_11_2020_6_35_11
110;0;4;queryStructureExp;query;1;462;white;white;390;300;49;1;1;dm2bywnah498o9e;true;16.666;390;195;psychophysics;1023188;experimental_data;NULL;NULL;NULL;NULL;13_11_2020_6_35_11
111;5;4;queryStructureExp;bars;2;2354;orange;blue,orange;300,39;150,18;32;2;2;dm2bywnah498o9e;true;169.075;390;195;psychophysics;1027555;experimental_data;NULL;NULL;NULL;NULL;13_11_2020_6_35_11
111;5;4;queryStructureExp;query;2;971;orange;blue,orange;300,39;150,18;50;2;2;dm2bywnah498o9e;true;16.666;390;195;psychophysics;1029539;experimental_data;NULL;NULL;NULL;NULL;13_11_2020_6_35_11
112;31;4;queryStructureExp;bars;7;5944;green;saddlebrown,white,yellow,black,orange,blue,green;120,210,390,660,300,570,480;150,180,210,240,270,300,330;32;7;5;dm2bywnah498o9e;false;167.604;390;195;psychophysics;1037496;experimental_data;NULL;NULL;NULL;NULL;13_11_2020_6_35_11
112;31;4;queryStructureExp;query;7;2894;green;saddlebrown,white,yellow,black,orange,blue,green;120,210,390,660,300,570,480;150,180,210,240,270,300,330;53;7;5;dm2bywnah498o9e;false;16.666;390;195;psychophysics;1041400;experimental_data;NULL;NULL;NULL;NULL;13_11_2020_6_35_11
113;1;4;queryStructureExp;bars;1;880;purple;purple;390;150;32;1;1;dm2bywnah498o9e;true;16.666;390;195;psychophysics;1044310;experimental_data;NULL;NULL;NULL;NULL;13_11_2020_6_35_11
113;1;4;queryStructureExp;query;1;793;purple;purple;390;150;49;1;1;dm2bywnah498o9e;true;16.666;390;195;psychophysics;1046115;experimental_data;NULL;NULL;NULL;NULL;13_11_2020_6_35_11
114;23;4;queryStructureExp;bars;5;6103;pink;saddlebrown,black,green,orange,pink;570,210,300,480,390;210,240,270,300,330;32;5;3;dm2bywnah498o9e;false;168.502;390;195;psychophysics;1054235;experimental_data;NULL;NULL;NULL;NULL;13_11_2020_6_35_11
114;23;4;queryStructureExp;query;5;2293;pink;saddlebrown,black,green,orange,pink;570,210,300,480,390;210,240,270,300,330;51;5;3;dm2bywnah498o9e;false;16.666;390;195;psychophysics;1057548;experimental_data;NULL;NULL;NULL;NULL;13_11_2020_6_35_11
115;16;4;queryStructureExp;bars;4;2296;orange;green,saddlebrown,blue,orange;300,210,390,480;150,180,210,240;32;4;4;dm2bywnah498o9e;true;16.666;390;195;psychophysics;1061862;experimental_data;NULL;NULL;NULL;NULL;13_11_2020_6_35_11
115;16;4;queryStructureExp;query;4;1133;orange;green,saddlebrown,blue,orange;300,210,390,480;150,180,210,240;52;4;4;dm2bywnah498o9e;true;16.666;390;195;psychophysics;1064004;experimental_data;NULL;NULL;NULL;NULL;13_11_2020_6_35_11
116;17;4;queryStructureExp;bars;4;2267;saddlebrown;pink,green,black,saddlebrown;210,390,300,480;210,240,270,300;32;4;4;dm2bywnah498o9e;true;167.904;390;195;psychophysics;1068285;experimental_data;NULL;NULL;NULL;NULL;13_11_2020_6_35_11
116;17;4;queryStructureExp;query;4;1223;saddlebrown;pink,green,black,saddlebrown;210,390,300,480;210,240,270,300;52;4;4;dm2bywnah498o9e;true;16.666;390;195;psychophysics;1070524;experimental_data;NULL;NULL;NULL;NULL;13_11_2020_6_35_11
117;28;4;queryStructureExp;bars;6;5222;white;orange,yellow,saddlebrown,red,blue,white;570,300,210,120,480,390;180,210,240,270,300,330;32;6;4;dm2bywnah498o9e;false;168.273;390;195;psychophysics;1077772;experimental_data;NULL;NULL;NULL;NULL;13_11_2020_6_35_11
117;28;4;queryStructureExp;query;6;2485;white;orange,yellow,saddlebrown,red,blue,white;570,300,210,120,480,390;180,210,240,270,300,330;52;6;4;dm2bywnah498o9e;false;168.943;390;195;psychophysics;1081268;experimental_data;NULL;NULL;NULL;NULL;13_11_2020_6_35_11
118;34;4;queryStructureExp;bars;7;5695;white;purple,yellow,saddlebrown,red,black,pink,white;300,210,570,390,480,660,120;150,180,210,240,270,300,330;32;7;1;dm2bywnah498o9e;false;168.638;390;195;psychophysics;1088979;experimental_data;NULL;NULL;NULL;NULL;13_11_2020_6_35_11
118;34;4;queryStructureExp;query;7;1428;white;purple,yellow,saddlebrown,red,black,pink,white;300,210,570,390,480,660,120;150,180,210,240,270,300,330;49;7;1;dm2bywnah498o9e;false;16.666;390;195;psychophysics;1091416;experimental_data;NULL;NULL;NULL;NULL;13_11_2020_6_35_11
119;4;4;queryStructureExp;bars;1;917;red;red;390;300;32;1;1;dm2bywnah498o9e;true;16.666;390;195;psychophysics;1094356;experimental_data;NULL;NULL;NULL;NULL;13_11_2020_6_35_11
119;4;4;queryStructureExp;query;1;348;red;red;390;300;49;1;1;dm2bywnah498o9e;true;16.666;390;195;psychophysics;1095715;experimental_data;NULL;NULL;NULL;NULL;13_11_2020_6_35_11
120;14;4;queryStructureExp;bars;3;2432;purple;blue,green,purple;300,390,480;180,210,240;32;3;3;dm2bywnah498o9e;true;16.666;390;195;psychophysics;1100170;experimental_data;NULL;NULL;NULL;NULL;13_11_2020_6_35_11
120;14;4;queryStructureExp;query;3;936;purple;blue,green,purple;300,390,480;180,210,240;51;3;3;dm2bywnah498o9e;true;16.666;390;195;psychophysics;1102125;experimental_data;NULL;NULL;NULL;NULL;13_11_2020_6_35_11
121;15;4;queryStructureExp;bars;4;2250;green;red,orange,yellow,green;480,390,210,300;240,270,300,330;32;4;2;dm2bywnah498o9e;false;167.913;390;195;psychophysics;1106387;experimental_data;NULL;NULL;NULL;NULL;13_11_2020_6_35_11
121;15;4;queryStructureExp;query;4;1146;green;red,orange,yellow,green;480,390,210,300;240,270,300,330;50;4;2;dm2bywnah498o9e;false;16.666;390;195;psychophysics;1108547;experimental_data;NULL;NULL;NULL;NULL;13_11_2020_6_35_11
122;18;4;queryStructureExp;bars;4;3202;black;yellow,pink,saddlebrown,black;210,300,390,480;240,270,300,330;32;4;4;dm2bywnah498o9e;true;16.666;390;195;psychophysics;1113772;experimental_data;NULL;NULL;NULL;NULL;13_11_2020_6_35_11
122;18;4;queryStructureExp;query;4;1076;black;yellow,pink,saddlebrown,black;210,300,390,480;240,270,300,330;52;4;4;dm2bywnah498o9e;true;16.666;390;195;psychophysics;1115861;experimental_data;NULL;NULL;NULL;NULL;13_11_2020_6_35_11
123;29;4;queryStructureExp;bars;6;5095;blue;white,orange,green,red,black,blue;300,210,570,480,120,390;150,180,210,240,270,300;32;6;4;dm2bywnah498o9e;false;167.756;390;195;psychophysics;1122981;experimental_data;NULL;NULL;NULL;NULL;13_11_2020_6_35_11
123;29;4;queryStructureExp;query;6;2291;blue;white,orange,green,red,black,blue;300,210,570,480,120,390;150,180,210,240,270,300;52;6;4;dm2bywnah498o9e;false;16.666;390;195;psychophysics;1126280;experimental_data;NULL;NULL;NULL;NULL;13_11_2020_6_35_11
124;21;4;queryStructureExp;bars;5;6388;white;yellow,green,saddlebrown,red,white;480,390,300,570,210;210,240,270,300,330;32;5;4;dm2bywnah498o9e;false;167.096;390;195;psychophysics;1134685;experimental_data;NULL;NULL;NULL;NULL;13_11_2020_6_35_11
124;21;4;queryStructureExp;query;5;1002;white;yellow,green,saddlebrown,red,white;480,390,300,570,210;210,240,270,300,330;52;5;4;dm2bywnah498o9e;false;16.666;390;195;psychophysics;1136702;experimental_data;NULL;NULL;NULL;NULL;13_11_2020_6_35_11
125;20;4;queryStructureExp;bars;5;4024;pink;blue,purple,black,white,pink;570,390,210,300,480;210,240,270,300,330;32;5;4;dm2bywnah498o9e;false;167.357;390;195;psychophysics;1142740;experimental_data;NULL;NULL;NULL;NULL;13_11_2020_6_35_11
125;20;4;queryStructureExp;query;5;974;pink;blue,purple,black,white,pink;570,390,210,300,480;210,240,270,300,330;52;5;4;dm2bywnah498o9e;false;16.666;390;195;psychophysics;1144725;experimental_data;NULL;NULL;NULL;NULL;13_11_2020_6_35_11
126;7;4;queryStructureExp;bars;2;1220;black;pink,black;390,3;150,18;32;2;1;dm2bywnah498o9e;false;16.666;390;195;psychophysics;1147959;experimental_data;NULL;NULL;NULL;NULL;13_11_2020_6_35_11
126;7;4;queryStructureExp;query;2;795;black;pink,black;390,3;150,18;49;2;1;dm2bywnah498o9e;false;16.666;390;195;psychophysics;1149764;experimental_data;NULL;NULL;NULL;NULL;13_11_2020_6_35_11
127;26;4;queryStructureExp;bars;6;5163;red;purple,saddlebrown,black,orange,green,red;210,120,390,570,300,480;150,180,210,240,270,300;32;6;5;dm2bywnah498o9e;false;167.199;390;195;psychophysics;1156948;experimental_data;NULL;NULL;NULL;NULL;13_11_2020_6_35_11
127;26;4;queryStructureExp;query;6;1956;red;purple,saddlebrown,black,orange,green,red;210,120,390,570,300,480;150,180,210,240,270,300;53;6;5;dm2bywnah498o9e;false;16.666;390;195;psychophysics;1159913;experimental_data;NULL;NULL;NULL;NULL;13_11_2020_6_35_11
128;10;4;queryStructureExp;bars;3;1220;orange;red,purple,orange;390,480,300;210,240,270;32;3;1;dm2bywnah498o9e;false;16.666;390;195;psychophysics;1163144;experimental_data;NULL;NULL;NULL;NULL;13_11_2020_6_35_11
128;10;4;queryStructureExp;query;3;1011;orange;red,purple,orange;390,480,300;210,240,270;49;3;1;dm2bywnah498o9e;false;16.666;390;195;psychophysics;1165164;experimental_data;NULL;NULL;NULL;NULL;13_11_2020_6_35_11
129;32;4;queryStructureExp;bars;7;5474;red;pink,white,purple,blue,orange,saddlebrown,red;120,480,210,570,300,660,390;150,180,210,240,270,300,330;32;7;4;dm2bywnah498o9e;false;168.198;390;195;psychophysics;1172653;experimental_data;NULL;NULL;NULL;NULL;13_11_2020_6_35_11
129;32;4;queryStructureExp;query;7;2346;red;pink,white,purple,blue,orange,saddlebrown,red;120,480,210,570,300,660,390;150,180,210,240,270,300,330;52;7;4;dm2bywnah498o9e;false;167.859;390;195;psychophysics;1176013;experimental_data;NULL;NULL;NULL;NULL;13_11_2020_6_35_11
130;3;4;queryStructureExp;bars;1;925;pink;pink;390;150;32;1;1;dm2bywnah498o9e;true;16.666;390;195;psychophysics;1178956;experimental_data;NULL;NULL;NULL;NULL;13_11_2020_6_35_11
130;3;4;queryStructureExp;query;1;313;pink;pink;390;150;49;1;1;dm2bywnah498o9e;true;16.666;390;195;psychophysics;1180279;experimental_data;NULL;NULL;NULL;NULL;13_11_2020_6_35_11
131;19;4;queryStructureExp;bars;4;2450;red;orange,green,saddlebrown,red;390,210,480,300;150,180,210,240;32;4;2;dm2bywnah498o9e;false;16.666;390;195;psychophysics;1184746;experimental_data;NULL;NULL;NULL;NULL;13_11_2020_6_35_11
131;19;4;queryStructureExp;query;4;1057;red;orange,green,saddlebrown,red;390,210,480,300;150,180,210,240;50;4;2;dm2bywnah498o9e;false;16.666;390;195;psychophysics;1186813;experimental_data;NULL;NULL;NULL;NULL;13_11_2020_6_35_11
132;8;4;queryStructureExp;bars;2;1167;pink;blue,pink;300,39;150,18;32;2;2;dm2bywnah498o9e;true;16.666;390;195;psychophysics;1189997;experimental_data;NULL;NULL;NULL;NULL;13_11_2020_6_35_11
132;8;4;queryStructureExp;query;2;922;pink;blue,pink;300,39;150,18;50;2;2;dm2bywnah498o9e;true;176.275;390;195;psychophysics;1191928;experimental_data;NULL;NULL;NULL;NULL;13_11_2020_6_35_11
133;24;4;queryStructureExp;bars;5;6242;red;purple,blue,green,orange,red;210,300,570,390,480;150,180,210,240,270;32;5;4;dm2bywnah498o9e;false;168.462;390;195;psychophysics;1200192;experimental_data;NULL;NULL;NULL;NULL;13_11_2020_6_35_11
133;24;4;queryStructureExp;query;5;1789;red;purple,blue,green,orange,red;210,300,570,390,480;150,180,210,240,270;52;5;4;dm2bywnah498o9e;false;16.666;390;195;psychophysics;1202989;experimental_data;NULL;NULL;NULL;NULL;13_11_2020_6_35_11
134;11;4;queryStructureExp;bars;3;1194;black;pink,purple,black;390,300,480;270,300,330;32;3;3;dm2bywnah498o9e;true;16.666;390;195;psychophysics;1206197;experimental_data;NULL;NULL;NULL;NULL;13_11_2020_6_35_11
134;11;4;queryStructureExp;query;3;937;black;pink,purple,black;390,300,480;270,300,330;51;3;3;dm2bywnah498o9e;true;16.666;390;195;psychophysics;1208143;experimental_data;NULL;NULL;NULL;NULL;13_11_2020_6_35_11
135;13;4;queryStructureExp;bars;3;1824;yellow;white,blue,yellow;390,300,480;150,180,210;32;3;3;dm2bywnah498o9e;true;16.666;390;195;psychophysics;1211981;experimental_data;NULL;NULL;NULL;NULL;13_11_2020_6_35_11
135;13;4;queryStructureExp;query;3;951;yellow;white,blue,yellow;390,300,480;150,180,210;51;3;3;dm2bywnah498o9e;true;16.666;390;195;psychophysics;1213949;experimental_data;NULL;NULL;NULL;NULL;13_11_2020_6_35_11
136;9;4;queryStructureExp;bars;2;1410;black;purple,black;390,3;270,3;32;2;1;dm2bywnah498o9e;false;16.666;390;195;psychophysics;1217374;experimental_data;NULL;NULL;NULL;NULL;13_11_2020_6_35_11
136;9;4;queryStructureExp;query;2;936;black;purple,black;390,3;270,3;49;2;1;dm2bywnah498o9e;false;16.666;390;195;psychophysics;1219332;experimental_data;NULL;NULL;NULL;NULL;13_11_2020_6_35_11
137;12;4;queryStructureExp;bars;3;2032;saddlebrown;orange,green,saddlebrown;390,480,300;270,300,330;32;3;1;dm2bywnah498o9e;false;16.666;390;195;psychophysics;1223381;experimental_data;NULL;NULL;NULL;NULL;13_11_2020_6_35_11
137;12;4;queryStructureExp;query;3;905;saddlebrown;orange,green,saddlebrown;390,480,300;270,300,330;49;3;1;dm2bywnah498o9e;false;16.666;390;195;psychophysics;1225301;experimental_data;NULL;NULL;NULL;NULL;13_11_2020_6_35_11
138;2;4;queryStructureExp;bars;1;835;blue;blue;390;330;32;1;1;dm2bywnah498o9e;true;16.666;390;195;psychophysics;1228149;experimental_data;NULL;NULL;NULL;NULL;13_11_2020_6_35_11
138;2;4;queryStructureExp;query;1;764;blue;blue;390;330;49;1;1;dm2bywnah498o9e;true;16.666;390;195;psychophysics;1229927;experimental_data;NULL;NULL;NULL;NULL;13_11_2020_6_35_11
139;25;4;queryStructureExp;bars;6;6107;pink;blue,purple,green,red,orange,pink;120,570,210,300,480,390;180,210,240,270,300,330;32;6;4;dm2bywnah498o9e;false;168.041;390;195;psychophysics;1238054;experimental_data;NULL;NULL;NULL;NULL;13_11_2020_6_35_11
139;25;4;queryStructureExp;query;6;2236;pink;blue,purple,green,red,orange,pink;120,570,210,300,480,390;180,210,240,270,300,330;52;6;4;dm2bywnah498o9e;false;16.666;390;195;psychophysics;1241302;experimental_data;NULL;NULL;NULL;NULL;13_11_2020_6_35_11
140;22;4;queryStructureExp;bars;5;6069;blue;pink,saddlebrown,green,purple,blue;390,480,210,300,570;210,240,270,300,330;32;5;5;dm2bywnah498o9e;true;168.049;390;195;psychophysics;1249383;experimental_data;NULL;NULL;NULL;NULL;13_11_2020_6_35_11
140;22;4;queryStructureExp;query;5;3450;blue;pink,saddlebrown,green,purple,blue;390,480,210,300,570;210,240,270,300,330;53;5;5;dm2bywnah498o9e;true;167.461;390;195;psychophysics;1253878;experimental_data;NULL;NULL;NULL;NULL;13_11_2020_6_35_11
NULL;NULL;0;NULL;end_of_block;NULL;19075;NULL;NULL;NULL;NULL;32;NULL;NULL;dm2bywnah498o9e;NULL;NULL;NULL;NULL;html-keyboard-response;1273962;experimental_data;1274049;212.341;0.4;NULL;13_11_2020_6_35_11
141;31;5;sortStructureCont;bars;7;8820;purple;white,yellow,green,orange,purple,blue,red;120,210,300,390,480,570,660;150,180,210,240,270,300,330;32;5;5;dm2bywnah498o9e;true;167.294;390;195;psychophysics;1283790;experimental_data;NULL;NULL;NULL;NULL;13_11_2020_6_35_11
141;31;5;sortStructureCont;query;7;2332;purple;white,yellow,green,orange,purple,blue,red;120,210,300,390,480,570,660;150,180,210,240,270,300,330;53;5;5;dm2bywnah498o9e;true;16.666;390;195;psychophysics;1287133;experimental_data;NULL;NULL;NULL;NULL;13_11_2020_6_35_11
142;26;5;sortStructureCont;bars;6;4505;white;saddlebrown,pink,orange,purple,blue,white;120,210,300,390,480,570;150,180,210,240,270,300;32;6;6;dm2bywnah498o9e;true;16.854;390;195;psychophysics;1293653;experimental_data;NULL;NULL;NULL;NULL;13_11_2020_6_35_11
142;26;5;sortStructureCont;query;6;2396;white;saddlebrown,pink,orange,purple,blue,white;120,210,300,390,480,570;150,180,210,240,270,300;54;6;6;dm2bywnah498o9e;true;16.666;390;195;psychophysics;1297061;experimental_data;NULL;NULL;NULL;NULL;13_11_2020_6_35_11
143;21;5;sortStructureCont;bars;5;6216;green;green,orange,purple,blue,saddlebrown;210,300,390,480,570;210,240,270,300,330;32;1;1;dm2bywnah498o9e;true;167.108;390;195;psychophysics;1305296;experimental_data;NULL;NULL;NULL;NULL;13_11_2020_6_35_11
143;21;5;sortStructureCont;query;5;2273;green;green,orange,purple,blue,saddlebrown;210,300,390,480,570;210,240,270,300,330;49;1;1;dm2bywnah498o9e;true;16.666;390;195;psychophysics;1308577;experimental_data;NULL;NULL;NULL;NULL;13_11_2020_6_35_11
144;28;5;sortStructureCont;bars;6;4843;blue;green,orange,purple,blue,black,white;120,210,300,390,480,570;180,210,240,270,300,330;32;4;4;dm2bywnah498o9e;true;168.402;390;195;psychophysics;1315441;experimental_data;NULL;NULL;NULL;NULL;13_11_2020_6_35_11
144;28;5;sortStructureCont;query;6;2180;blue;green,orange,purple,blue,black,white;120,210,300,390,480,570;180,210,240,270,300,330;52;4;4;dm2bywnah498o9e;true;167.952;390;195;psychophysics;1318631;experimental_data;NULL;NULL;NULL;NULL;13_11_2020_6_35_11
145;33;5;sortStructureCont;bars;7;5471;blue;orange,purple,blue,red,pink,green,saddlebrown;120,210,300,390,480,570,660;150,180,210,240,270,300,330;32;3;3;dm2bywnah498o9e;true;167.686;390;195;psychophysics;1326117;experimental_data;NULL;NULL;NULL;NULL;13_11_2020_6_35_11
145;33;5;sortStructureCont;query;7;2151;blue;orange,purple,blue,red,pink,green,saddlebrown;120,210,300,390,480,570,660;150,180,210,240,270,300,330;51;3;3;dm2bywnah498o9e;true;167.962;390;195;psychophysics;1329287;experimental_data;NULL;NULL;NULL;NULL;13_11_2020_6_35_11
146;0;5;sortStructureCont;bars;1;832;orange;orange;390;300;32;1;1;dm2bywnah498o9e;true;16.666;390;195;psychophysics;1332133;experimental_data;NULL;NULL;NULL;NULL;13_11_2020_6_35_11
146;0;5;sortStructureCont;query;1;322;orange;orange;390;300;49;1;1;dm2bywnah498o9e;true;16.666;390;195;psychophysics;1333471;experimental_data;NULL;NULL;NULL;NULL;13_11_2020_6_35_11
147;6;5;sortStructureCont;bars;2;1410;orange;orange,purple;300,39;300,33;32;1;1;dm2bywnah498o9e;true;168.668;390;195;psychophysics;1336893;experimental_data;NULL;NULL;NULL;NULL;13_11_2020_6_35_11
147;6;5;sortStructureCont;query;2;1014;orange;orange,purple;300,39;300,33;49;1;1;dm2bywnah498o9e;true;16.666;390;195;psychophysics;1338916;experimental_data;NULL;NULL;NULL;NULL;13_11_2020_6_35_11
148;4;5;sortStructureCont;bars;1;1937;orange;orange;390;300;32;1;1;dm2bywnah498o9e;true;16.666;390;195;psychophysics;1342871;experimental_data;NULL;NULL;NULL;NULL;13_11_2020_6_35_11
148;4;5;sortStructureCont;query;1;540;orange;orange;390;300;49;1;1;dm2bywnah498o9e;true;17.171;390;195;psychophysics;1344469;experimental_data;NULL;NULL;NULL;NULL;13_11_2020_6_35_11
149;2;5;sortStructureCont;bars;1;913;orange;orange;390;330;32;1;1;dm2bywnah498o9e;true;16.666;390;195;psychophysics;1347397;experimental_data;NULL;NULL;NULL;NULL;13_11_2020_6_35_11
149;2;5;sortStructureCont;query;1;593;orange;orange;390;330;49;1;1;dm2bywnah498o9e;true;16.666;390;195;psychophysics;1349006;experimental_data;NULL;NULL;NULL;NULL;13_11_2020_6_35_11
150;19;5;sortStructureCont;bars;4;2420;blue;orange,purple,blue,white;210,300,390,480;150,180,210,240;32;3;3;dm2bywnah498o9e;true;16.666;390;195;psychophysics;1353438;experimental_data;NULL;NULL;NULL;NULL;13_11_2020_6_35_11
150;19;5;sortStructureCont;query;4;1063;blue;orange,purple,blue,white;210,300,390,480;150,180,210,240;51;3;3;dm2bywnah498o9e;true;16.666;390;195;psychophysics;1355510;experimental_data;NULL;NULL;NULL;NULL;13_11_2020_6_35_11
151;12;5;sortStructureCont;bars;3;1305;blue;orange,purple,blue;300,390,480;270,300,330;32;3;3;dm2bywnah498o9e;true;16.666;390;195;psychophysics;1358838;experimental_data;NULL;NULL;NULL;NULL;13_11_2020_6_35_11
151;12;5;sortStructureCont;query;3;1053;blue;orange,purple,blue;300,390,480;270,300,330;51;3;3;dm2bywnah498o9e;true;16.666;390;195;psychophysics;1360902;experimental_data;NULL;NULL;NULL;NULL;13_11_2020_6_35_11
152;10;5;sortStructureCont;bars;3;1641;orange;orange,purple,blue;300,390,480;210,240,270;32;1;1;dm2bywnah498o9e;true;16.666;390;195;psychophysics;1364561;experimental_data;NULL;NULL;NULL;NULL;13_11_2020_6_35_11
152;10;5;sortStructureCont;query;3;1493;orange;orange,purple,blue;300,390,480;210,240,270;49;1;1;dm2bywnah498o9e;true;16.666;390;195;psychophysics;1367063;experimental_data;NULL;NULL;NULL;NULL;13_11_2020_6_35_11
153;23;5;sortStructureCont;bars;5;7405;orange;black,saddlebrown,orange,purple,blue;210,300,390,480,570;210,240,270,300,330;32;3;3;dm2bywnah498o9e;true;168.179;390;195;psychophysics;1376487;experimental_data;NULL;NULL;NULL;NULL;13_11_2020_6_35_11
153;23;5;sortStructureCont;query;5;2109;orange;black,saddlebrown,orange,purple,blue;210,300,390,480,570;210,240,270,300,330;51;3;3;dm2bywnah498o9e;true;16.666;390;195;psychophysics;1379609;experimental_data;NULL;NULL;NULL;NULL;13_11_2020_6_35_11
154;17;5;sortStructureCont;bars;4;2821;purple;orange,purple,blue,black;210,300,390,480;210,240,270,300;32;2;2;dm2bywnah498o9e;true;16.666;390;195;psychophysics;1384448;experimental_data;NULL;NULL;NULL;NULL;13_11_2020_6_35_11
154;17;5;sortStructureCont;query;4;1075;purple;orange,purple,blue,black;210,300,390,480;210,240,270,300;50;2;2;dm2bywnah498o9e;true;16.666;390;195;psychophysics;1386536;experimental_data;NULL;NULL;NULL;NULL;13_11_2020_6_35_11
155;16;5;sortStructureCont;bars;4;3446;blue;orange,purple,blue,saddlebrown;210,300,390,480;150,180,210,240;32;3;3;dm2bywnah498o9e;true;16.666;390;195;psychophysics;1391998;experimental_data;NULL;NULL;NULL;NULL;13_11_2020_6_35_11
155;16;5;sortStructureCont;query;4;1107;blue;orange,purple,blue,saddlebrown;210,300,390,480;150,180,210,240;51;3;3;dm2bywnah498o9e;true;16.666;390;195;psychophysics;1394118;experimental_data;NULL;NULL;NULL;NULL;13_11_2020_6_35_11
156;14;5;sortStructureCont;bars;3;2291;orange;orange,purple,blue;300,390,480;180,210,240;32;1;1;dm2bywnah498o9e;true;16.666;390;195;psychophysics;1398424;experimental_data;NULL;NULL;NULL;NULL;13_11_2020_6_35_11
156;14;5;sortStructureCont;query;3;1175;orange;orange,purple,blue;300,390,480;180,210,240;49;1;1;dm2bywnah498o9e;true;16.666;390;195;psychophysics;1400609;experimental_data;NULL;NULL;NULL;NULL;13_11_2020_6_35_11
157;7;5;sortStructureCont;bars;2;1473;purple;orange,purple;300,39;150,18;32;2;2;dm2bywnah498o9e;true;16.666;390;195;psychophysics;1404101;experimental_data;NULL;NULL;NULL;NULL;13_11_2020_6_35_11
157;7;5;sortStructureCont;query;2;843;purple;orange,purple;300,39;150,18;50;2;2;dm2bywnah498o9e;true;16.666;390;195;psychophysics;1405959;experimental_data;NULL;NULL;NULL;NULL;13_11_2020_6_35_11
158;25;5;sortStructureCont;bars;6;5759;purple;orange,purple,blue,yellow,white,black;120,210,300,390,480,570;180,210,240,270,300,330;32;2;2;dm2bywnah498o9e;true;169.111;390;195;psychophysics;1413735;experimental_data;NULL;NULL;NULL;NULL;13_11_2020_6_35_11
158;25;5;sortStructureCont;query;6;2081;purple;orange,purple,blue,yellow,white,black;120,210,300,390,480,570;180,210,240,270,300,330;50;2;2;dm2bywnah498o9e;true;168.015;390;195;psychophysics;1416829;experimental_data;NULL;NULL;NULL;NULL;13_11_2020_6_35_11
159;34;5;sortStructureCont;bars;7;5297;red;orange,purple,blue,green,white,black,red;120,210,300,390,480,570,660;150,180,210,240,270,300,330;32;7;7;dm2bywnah498o9e;true;16.879;390;195;psychophysics;1424144;experimental_data;NULL;NULL;NULL;NULL;13_11_2020_6_35_11
159;34;5;sortStructureCont;query;7;3317;red;orange,purple,blue,green,white,black,red;120,210,300,390,480,570,660;150,180,210,240,270,300,330;55;7;7;dm2bywnah498o9e;true;16.666;390;195;psychophysics;1428472;experimental_data;NULL;NULL;NULL;NULL;13_11_2020_6_35_11
160;3;5;sortStructureCont;bars;1;927;orange;orange;390;150;32;1;1;dm2bywnah498o9e;true;16.666;390;195;psychophysics;1431414;experimental_data;NULL;NULL;NULL;NULL;13_11_2020_6_35_11
160;3;5;sortStructureCont;query;1;1380;orange;orange;390;150;49;1;1;dm2bywnah498o9e;true;16.666;390;195;psychophysics;1433809;experimental_data;NULL;NULL;NULL;NULL;13_11_2020_6_35_11
161;20;5;sortStructureCont;bars;5;6565;purple;orange,purple,blue,red,green;210,300,390,480,570;210,240,270,300,330;32;2;2;dm2bywnah498o9e;true;168.802;390;195;psychophysics;1442392;experimental_data;NULL;NULL;NULL;NULL;13_11_2020_6_35_11
161;20;5;sortStructureCont;query;5;2215;purple;orange,purple,blue,red,green;210,300,390,480,570;210,240,270,300,330;50;2;2;dm2bywnah498o9e;true;16.666;390;195;psychophysics;1445614;experimental_data;NULL;NULL;NULL;NULL;13_11_2020_6_35_11
162;29;5;sortStructureCont;bars;6;5666;white;black,white,green,orange,purple,blue;120,210,300,390,480,570;150,180,210,240,270,300;32;2;2;dm2bywnah498o9e;true;16.865;390;195;psychophysics;1453295;experimental_data;NULL;NULL;NULL;NULL;13_11_2020_6_35_11
162;29;5;sortStructureCont;query;6;1690;white;black,white,green,orange,purple,blue;120,210,300,390,480,570;150,180,210,240,270,300;50;2;2;dm2bywnah498o9e;true;16.666;390;195;psychophysics;1455998;experimental_data;NULL;NULL;NULL;NULL;13_11_2020_6_35_11
163;22;5;sortStructureCont;bars;5;4722;blue;pink,orange,purple,blue,yellow;210,300,390,480,570;210,240,270,300,330;32;4;4;dm2bywnah498o9e;true;16.785;390;195;psychophysics;1462733;experimental_data;NULL;NULL;NULL;NULL;13_11_2020_6_35_11
163;22;5;sortStructureCont;query;5;2310;blue;pink,orange,purple,blue,yellow;210,300,390,480,570;210,240,270,300,330;52;4;4;dm2bywnah498o9e;true;16.666;390;195;psychophysics;1466057;experimental_data;NULL;NULL;NULL;NULL;13_11_2020_6_35_11
164;1;5;sortStructureCont;bars;1;985;orange;orange;390;150;32;1;1;dm2bywnah498o9e;true;16.666;390;195;psychophysics;1469061;experimental_data;NULL;NULL;NULL;NULL;13_11_2020_6_35_11
164;1;5;sortStructureCont;query;1;923;orange;orange;390;150;49;1;1;dm2bywnah498o9e;true;16.666;390;195;psychophysics;1470997;experimental_data;NULL;NULL;NULL;NULL;13_11_2020_6_35_11
165;32;5;sortStructureCont;bars;7;5780;purple;pink,white,red,orange,purple,blue,black;120,210,300,390,480,570,660;150,180,210,240,270,300,330;32;5;5;dm2bywnah498o9e;true;167.629;390;195;psychophysics;1478792;experimental_data;NULL;NULL;NULL;NULL;13_11_2020_6_35_11
165;32;5;sortStructureCont;query;7;3108;purple;pink,white,red,orange,purple,blue,black;120,210,300,390,480,570,660;150,180,210,240,270,300,330;53;5;5;dm2bywnah498o9e;true;16.666;390;195;psychophysics;1482911;experimental_data;NULL;NULL;NULL;NULL;13_11_2020_6_35_11
166;5;5;sortStructureCont;bars;2;1007;orange;orange,purple;300,39;150,18;32;1;1;dm2bywnah498o9e;true;16.666;390;195;psychophysics;1485935;experimental_data;NULL;NULL;NULL;NULL;13_11_2020_6_35_11
166;5;5;sortStructureCont;query;2;955;orange;orange,purple;300,39;150,18;49;1;1;dm2bywnah498o9e;true;16.969;390;195;psychophysics;1487903;experimental_data;NULL;NULL;NULL;NULL;13_11_2020_6_35_11
167;24;5;sortStructureCont;bars;5;5512;purple;white,orange,purple,blue,black;210,300,390,480,570;150,180,210,240,270;32;3;3;dm2bywnah498o9e;true;167.679;390;195;psychophysics;1495430;experimental_data;NULL;NULL;NULL;NULL;13_11_2020_6_35_11
167;24;5;sortStructureCont;query;5;2196;purple;white,orange,purple,blue,black;210,300,390,480,570;150,180,210,240,270;51;3;3;dm2bywnah498o9e;true;16.666;390;195;psychophysics;1498659;experimental_data;NULL;NULL;NULL;NULL;13_11_2020_6_35_11
168;11;5;sortStructureCont;bars;3;1226;orange;orange,purple,blue;300,390,480;270,300,330;32;1;1;dm2bywnah498o9e;true;168.975;390;195;psychophysics;1501904;experimental_data;NULL;NULL;NULL;NULL;13_11_2020_6_35_11
168;11;5;sortStructureCont;query;3;1060;orange;orange,purple,blue;300,390,480;270,300,330;49;1;1;dm2bywnah498o9e;true;16.666;390;195;psychophysics;1503974;experimental_data;NULL;NULL;NULL;NULL;13_11_2020_6_35_11
169;13;5;sortStructureCont;bars;3;1218;purple;orange,purple,blue;300,390,480;150,180,210;32;2;2;dm2bywnah498o9e;true;16.666;390;195;psychophysics;1507209;experimental_data;NULL;NULL;NULL;NULL;13_11_2020_6_35_11
169;13;5;sortStructureCont;query;3;877;purple;orange,purple,blue;300,390,480;150,180,210;50;2;2;dm2bywnah498o9e;true;16.666;390;195;psychophysics;1509104;experimental_data;NULL;NULL;NULL;NULL;13_11_2020_6_35_11
170;9;5;sortStructureCont;bars;2;1139;purple;orange,purple;300,39;270,3;32;2;2;dm2bywnah498o9e;true;16.666;390;195;psychophysics;1512258;experimental_data;NULL;NULL;NULL;NULL;13_11_2020_6_35_11
170;9;5;sortStructureCont;query;2;794;purple;orange,purple;300,39;270,3;50;2;2;dm2bywnah498o9e;true;16.666;390;195;psychophysics;1514062;experimental_data;NULL;NULL;NULL;NULL;13_11_2020_6_35_11
171;18;5;sortStructureCont;bars;4;2831;purple;red,orange,purple,blue;210,300,390,480;240,270,300,330;32;3;3;dm2bywnah498o9e;true;167.652;390;195;psychophysics;1518912;experimental_data;NULL;NULL;NULL;NULL;13_11_2020_6_35_11
171;18;5;sortStructureCont;query;4;1084;purple;red,orange,purple,blue;210,300,390,480;240,270,300,330;51;3;3;dm2bywnah498o9e;true;16.666;390;195;psychophysics;1521014;experimental_data;NULL;NULL;NULL;NULL;13_11_2020_6_35_11
172;15;5;sortStructureCont;bars;4;3152;purple;black,orange,purple,blue;210,300,390,480;240,270,300,330;32;3;3;dm2bywnah498o9e;true;16.666;390;195;psychophysics;1526182;experimental_data;NULL;NULL;NULL;NULL;13_11_2020_6_35_11
172;15;5;sortStructureCont;query;4;1201;purple;black,orange,purple,blue;210,300,390,480;240,270,300,330;51;3;3;dm2bywnah498o9e;true;16.666;390;195;psychophysics;1528398;experimental_data;NULL;NULL;NULL;NULL;13_11_2020_6_35_11
173;27;5;sortStructureCont;bars;6;5817;purple;saddlebrown,white,orange,purple,blue,red;120,210,300,390,480,570;180,210,240,270,300,330;32;4;4;dm2bywnah498o9e;true;173.127;390;195;psychophysics;1536231;experimental_data;NULL;NULL;NULL;NULL;13_11_2020_6_35_11
173;27;5;sortStructureCont;query;6;2031;purple;saddlebrown,white,orange,purple,blue,red;120,210,300,390,480,570;180,210,240,270,300,330;52;4;4;dm2bywnah498o9e;true;16.666;390;195;psychophysics;1539278;experimental_data;NULL;NULL;NULL;NULL;13_11_2020_6_35_11
174;8;5;sortStructureCont;bars;2;982;purple;orange,purple;300,39;150,18;32;2;2;dm2bywnah498o9e;true;16.666;390;195;psychophysics;1542279;experimental_data;NULL;NULL;NULL;NULL;13_11_2020_6_35_11
174;8;5;sortStructureCont;query;2;898;purple;orange,purple;300,39;150,18;50;2;2;dm2bywnah498o9e;true;16.666;390;195;psychophysics;1544192;experimental_data;NULL;NULL;NULL;NULL;13_11_2020_6_35_11
175;30;5;sortStructureCont;bars;7;6848;purple;saddlebrown,red,pink,black,orange,purple,blue;120,210,300,390,480,570,660;150,180,210,240,270,300,330;32;6;6;dm2bywnah498o9e;true;169.129;390;195;psychophysics;1553059;experimental_data;NULL;NULL;NULL;NULL;13_11_2020_6_35_11
175;30;5;sortStructureCont;query;7;2827;purple;saddlebrown,red,pink,black,orange,purple,blue;120,210,300,390,480,570,660;150,180,210,240,270,300,330;54;6;6;dm2bywnah498o9e;true;16.666;390;195;psychophysics;1556895;experimental_data;NULL;NULL;NULL;NULL;13_11_2020_6_35_11
NULL;NULL;0;NULL;end_of_block;NULL;2876;NULL;NULL;NULL;NULL;32;NULL;NULL;dm2bywnah498o9e;NULL;NULL;NULL;NULL;html-keyboard-response;1560784;experimental_data;1560872;260.145;1;NULL;13_11_2020_6_35_11
176;25;6;noStructureExp;bars;6;5565;blue;green,saddlebrown,yellow,white,blue,purple;120,570,210,300,480,390;180,210,240,270,300,330;32;5;5;dm2bywnah498o9e;true;167.162;390;195;psychophysics;1567362;experimental_data;NULL;NULL;NULL;NULL;13_11_2020_6_35_11
176;25;6;noStructureExp;query;6;2555;blue;green,saddlebrown,yellow,white,blue,purple;120,570,210,300,480,390;180,210,240,270,300,330;53;5;5;dm2bywnah498o9e;true;168.839;390;195;psychophysics;1570967;experimental_data;NULL;NULL;NULL;NULL;13_11_2020_6_35_11
177;6;6;noStructureExp;bars;2;3065;yellow;red,yellow;390,3;300,33;32;2;1;dm2bywnah498o9e;false;16.666;390;195;psychophysics;1576047;experimental_data;NULL;NULL;NULL;NULL;13_11_2020_6_35_11
177;6;6;noStructureExp;query;2;969;yellow;red,yellow;390,3;300,33;49;2;1;dm2bywnah498o9e;false;16.666;390;195;psychophysics;1578031;experimental_data;NULL;NULL;NULL;NULL;13_11_2020_6_35_11
178;31;6;noStructureExp;bars;7;5419;blue;yellow,red,black,green,orange,blue,pink;120,210,390,660,300,570,480;150,180,210,240,270,300,330;32;6;-30;dm2bywnah498o9e;invalid response;169.272;390;195;psychophysics;1585463;experimental_data;NULL;NULL;NULL;NULL;13_11_2020_6_35_11
178;31;6;noStructureExp;query;7;580;blue;yellow,red,black,green,orange,blue,pink;120,210,390,660,300,570,480;150,180,210,240,270,300,330;18;6;-30;dm2bywnah498o9e;invalid response;16.666;390;195;psychophysics;1587056;experimental_data;NULL;NULL;NULL;NULL;13_11_2020_6_35_11
