Trial_index;TrialID;Block;Conditions;Stimulus_type;Number_of_Bars;rt;Query_color;color_sequence;position_sequence;heights;key_press;Correct_Position;response_position;subject_id;correct;avg_frame_time;center_x;center_y;trial_type;time_elapsed;TrialType;timeMs;timeMin;score;reward;date
1;1;1;noStructureExp;bars;2;2209;pink;pink,purple;300,39;210,24;32;1;1;vrlt89awtbuehfx;true;166.661;390;195;psychophysics;144564;practice_trials;NULL;NULL;NULL;NULL;14_11_2020_9_50_30
1;1;1;noStructureExp;query;2;1265;pink;pink,purple;300,39;210,24;49;1;1;vrlt89awtbuehfx;true;166.641;390;195;psychophysics;146836;practice_trial;NULL;NULL;NULL;NULL;14_11_2020_9_50_30
2;6;1;noStructureExp;bars;7;10200;purple;yellow,orange,purple,black,saddlebrown,red,blue;480,390,570,210,300,660,120;150,180,210,240,270,300,330;32;3;3;vrlt89awtbuehfx;true;166.667;390;195;psychophysics;159046;practice_trials;NULL;NULL;NULL;NULL;14_11_2020_9_50_30
2;6;1;noStructureExp;query;7;1567;purple;yellow,orange,purple,black,saddlebrown,red,blue;480,390,570,210,300,660,120;150,180,210,240,270,300,330;51;3;3;vrlt89awtbuehfx;true;166.681;390;195;psychophysics;161619;practice_trial;NULL;NULL;NULL;NULL;14_11_2020_9_50_30
3;2;1;noStructureExp;bars;3;2755;black;green,black,blue;390,300,480;270,300,330;32;2;2;vrlt89awtbuehfx;true;166.663;390;195;psychophysics;166387;practice_trials;NULL;NULL;NULL;NULL;14_11_2020_9_50_30
3;2;1;noStructureExp;query;3;1434;black;green,black,blue;390,300,480;270,300,330;50;2;2;vrlt89awtbuehfx;true;166.652;390;195;psychophysics;168833;practice_trial;NULL;NULL;NULL;NULL;14_11_2020_9_50_30
4;0;1;noStructureExp;bars;1;1801;orange;orange;390;150;32;1;1;vrlt89awtbuehfx;true;166.662;390;195;psychophysics;172642;practice_trials;NULL;NULL;NULL;NULL;14_11_2020_9_50_30
4;0;1;noStructureExp;query;1;336;orange;orange;390;150;49;1;1;vrlt89awtbuehfx;true;166.785;390;195;psychophysics;173985;practice_trial;NULL;NULL;NULL;NULL;14_11_2020_9_50_30
5;4;1;noStructureExp;bars;5;3749;green;yellow,blue,green,purple,pink;390,300,570,210,480;210,240,270,300,330;32;3;3;vrlt89awtbuehfx;true;166.666;390;195;psychophysics;179747;practice_trials;NULL;NULL;NULL;NULL;14_11_2020_9_50_30
5;4;1;noStructureExp;query;5;1661;green;yellow,blue,green,purple,pink;390,300,570,210,480;210,240,270,300,330;51;3;3;vrlt89awtbuehfx;true;166.655;390;195;psychophysics;182417;practice_trial;NULL;NULL;NULL;NULL;14_11_2020_9_50_30
6;5;1;noStructureExp;bars;6;7620;saddlebrown;pink,orange,purple,white,saddlebrown,red;300,210,120,570,480,390;180,210,240,270,300,330;32;5;5;vrlt89awtbuehfx;true;166.662;390;195;psychophysics;192051;practice_trials;NULL;NULL;NULL;NULL;14_11_2020_9_50_30
6;5;1;noStructureExp;query;6;2078;saddlebrown;pink,orange,purple,white,saddlebrown,red;300,210,120,570,480,390;180,210,240,270,300,330;53;5;5;vrlt89awtbuehfx;true;166.653;390;195;psychophysics;195141;practice_trial;NULL;NULL;NULL;NULL;14_11_2020_9_50_30
7;3;1;noStructureExp;bars;4;2826;red;yellow,red,black,orange;210,480,300,390;240,270,300,330;32;2;2;vrlt89awtbuehfx;true;166.663;390;195;psychophysics;199987;practice_trials;NULL;NULL;NULL;NULL;14_11_2020_9_50_30
7;3;1;noStructureExp;query;4;1301;red;yellow,red,black,orange;210,480,300,390;240,270,300,330;50;2;2;vrlt89awtbuehfx;true;166.674;390;195;psychophysics;202293;practice_trial;NULL;NULL;NULL;NULL;14_11_2020_9_50_30
8;4;2;noStructureCont;bars;5;2727;orange;red,white,orange,pink,green;210,300,390,480,570;210,240,270,300,330;32;3;3;vrlt89awtbuehfx;true;166.662;390;195;psychophysics;350708;practice_trials;NULL;NULL;NULL;NULL;14_11_2020_9_50_30
8;4;2;noStructureCont;query;5;1021;orange;red,white,orange,pink,green;210,300,390,480,570;210,240,270,300,330;51;3;3;vrlt89awtbuehfx;true;166.634;390;195;psychophysics;352753;practice_trial;NULL;NULL;NULL;NULL;14_11_2020_9_50_30
9;1;2;noStructureCont;bars;2;1001;green;green,saddlebrown;300,39;210,24;32;1;1;vrlt89awtbuehfx;true;166.689;390;195;psychophysics;355763;practice_trials;NULL;NULL;NULL;NULL;14_11_2020_9_50_30
9;1;2;noStructureCont;query;2;622;green;green,saddlebrown;300,39;210,24;49;1;1;vrlt89awtbuehfx;true;166.659;390;195;psychophysics;357393;practice_trial;NULL;NULL;NULL;NULL;14_11_2020_9_50_30
10;0;2;noStructureCont;bars;1;682;yellow;yellow;390;150;32;1;1;vrlt89awtbuehfx;true;166.724;390;195;psychophysics;360082;practice_trials;NULL;NULL;NULL;NULL;14_11_2020_9_50_30
10;0;2;noStructureCont;query;1;268;yellow;yellow;390;150;49;1;1;vrlt89awtbuehfx;true;166.689;390;195;psychophysics;361362;practice_trial;NULL;NULL;NULL;NULL;14_11_2020_9_50_30
11;3;2;noStructureCont;bars;4;2598;green;pink,green,blue,white;210,300,390,480;240,270,300,330;32;2;2;vrlt89awtbuehfx;true;166.663;390;195;psychophysics;365972;practice_trials;NULL;NULL;NULL;NULL;14_11_2020_9_50_30
11;3;2;noStructureCont;query;4;1358;green;pink,green,blue,white;210,300,390,480;240,270,300,330;50;2;2;vrlt89awtbuehfx;true;166.668;390;195;psychophysics;368353;practice_trial;NULL;NULL;NULL;NULL;14_11_2020_9_50_30
12;6;2;noStructureCont;bars;7;5909;blue;green,red,blue,white,pink,yellow,black;120,210,300,390,480,570,660;150,180,210,240,270,300,330;32;3;3;vrlt89awtbuehfx;true;166.662;390;195;psychophysics;376272;practice_trials;NULL;NULL;NULL;NULL;14_11_2020_9_50_30
12;6;2;noStructureCont;query;7;1216;blue;green,red,blue,white,pink,yellow,black;120,210,300,390,480,570,660;150,180,210,240,270,300,330;51;3;3;vrlt89awtbuehfx;true;166.639;390;195;psychophysics;378497;practice_trial;NULL;NULL;NULL;NULL;14_11_2020_9_50_30
13;5;2;noStructureCont;bars;6;4216;white;purple,black,pink,orange,white,yellow;120,210,300,390,480,570;180,210,240,270,300,330;32;5;5;vrlt89awtbuehfx;true;166.668;390;195;psychophysics;384723;practice_trials;NULL;NULL;NULL;NULL;14_11_2020_9_50_30
13;5;2;noStructureCont;query;6;2015;white;purple,black,pink,orange,white,yellow;120,210,300,390,480,570;180,210,240,270,300,330;53;5;5;vrlt89awtbuehfx;true;166.661;390;195;psychophysics;387744;practice_trial;NULL;NULL;NULL;NULL;14_11_2020_9_50_30
14;2;2;noStructureCont;bars;3;2303;white;blue,white,green;300,390,480;270,300,330;32;2;2;vrlt89awtbuehfx;true;166.652;390;195;psychophysics;392068;practice_trials;NULL;NULL;NULL;NULL;14_11_2020_9_50_30
14;2;2;noStructureCont;query;3;1198;white;blue,white,green;300,390,480;270,300,330;50;2;2;vrlt89awtbuehfx;true;16.669;390;195;psychophysics;394275;practice_trial;NULL;NULL;NULL;NULL;14_11_2020_9_50_30
NULL;NULL;NULL;NULL;end_of_practice;NULL;3120;NULL;NULL;NULL;NULL;32;NULL;NULL;vrlt89awtbuehfx;NULL;NULL;NULL;NULL;html-keyboard-response;398403;practice_trials;398408;664.013;1;NULL;14_11_2020_9_50_30
1;7;1;noStructureCont;bars;2;1413;saddlebrown;blue,saddlebrown;300,39;150,18;32;2;2;vrlt89awtbuehfx;true;166.673;390;195;psychophysics;86234;experimental_data;NULL;NULL;NULL;NULL;14_11_2020_9_58_2
1;7;1;noStructureCont;query;2;587;saddlebrown;blue,saddlebrown;300,39;150,18;50;2;2;vrlt89awtbuehfx;true;166.654;390;195;psychophysics;87830;experimental_data;NULL;NULL;NULL;NULL;14_11_2020_9_58_2
2;26;1;noStructureCont;bars;6;3958;blue;black,white,purple,pink,yellow,blue;120,210,300,390,480,570;180,210,240,270,300,330;32;6;5;vrlt89awtbuehfx;false;166.664;390;195;psychophysics;93798;experimental_data;NULL;NULL;NULL;NULL;14_11_2020_9_58_2
2;26;1;noStructureCont;query;6;1669;blue;black,white,purple,pink,yellow,blue;120,210,300,390,480,570;180,210,240,270,300,330;53;6;5;vrlt89awtbuehfx;false;166.679;390;195;psychophysics;96473;experimental_data;NULL;NULL;NULL;NULL;14_11_2020_9_58_2
3;19;1;noStructureCont;bars;4;3895;blue;green,blue,purple,white;210,300,390,480;210,240,270,300;32;2;2;vrlt89awtbuehfx;true;16.667;390;195;psychophysics;102378;experimental_data;NULL;NULL;NULL;NULL;14_11_2020_9_58_2
3;19;1;noStructureCont;query;4;1057;blue;green,blue,purple,white;210,300,390,480;210,240,270,300;50;2;2;vrlt89awtbuehfx;true;166.693;390;195;psychophysics;104440;experimental_data;NULL;NULL;NULL;NULL;14_11_2020_9_58_2
4;21;1;noStructureCont;bars;5;3155;red;pink,purple,blue,black,red;210,300,390,480,570;210,240,270,300,330;32;5;5;vrlt89awtbuehfx;true;16.665;390;195;psychophysics;109606;experimental_data;NULL;NULL;NULL;NULL;14_11_2020_9_58_2
4;21;1;noStructureCont;query;5;1238;red;pink,purple,blue,black,red;210,300,390,480,570;210,240,270,300,330;53;5;5;vrlt89awtbuehfx;true;166.691;390;195;psychophysics;111849;experimental_data;NULL;NULL;NULL;NULL;14_11_2020_9_58_2
5;8;1;noStructureCont;bars;2;1427;blue;orange,blue;300,39;210,24;32;2;2;vrlt89awtbuehfx;true;166.645;390;195;psychophysics;115289;experimental_data;NULL;NULL;NULL;NULL;14_11_2020_9_58_2
5;8;1;noStructureCont;query;2;577;blue;orange,blue;300,39;210,24;50;2;2;vrlt89awtbuehfx;true;166.718;390;195;psychophysics;116872;experimental_data;NULL;NULL;NULL;NULL;14_11_2020_9_58_2
6;0;1;noStructureCont;bars;1;721;white;white;390;180;32;1;1;vrlt89awtbuehfx;true;16.666;390;195;psychophysics;119606;experimental_data;NULL;NULL;NULL;NULL;14_11_2020_9_58_2
6;0;1;noStructureCont;query;1;327;white;white;390;180;49;1;1;vrlt89awtbuehfx;true;166.775;390;195;psychophysics;120938;experimental_data;NULL;NULL;NULL;NULL;14_11_2020_9_58_2
7;17;1;noStructureCont;bars;4;2777;green;orange,purple,green,red;210,300,390,480;180,210,240,270;32;3;3;vrlt89awtbuehfx;true;166.664;390;195;psychophysics;125736;experimental_data;NULL;NULL;NULL;NULL;14_11_2020_9_58_2
7;17;1;noStructureCont;query;4;1261;green;orange,purple,green,red;210,300,390,480;180,210,240,270;51;3;3;vrlt89awtbuehfx;true;166.671;390;195;psychophysics;128006;experimental_data;NULL;NULL;NULL;NULL;14_11_2020_9_58_2
8;31;1;noStructureCont;bars;7;6203;black;pink,yellow,black,orange,red,saddlebrown,white;120,210,300,390,480,570,660;150,180,210,240,270,300,330;32;3;3;vrlt89awtbuehfx;true;16.667;390;195;psychophysics;136218;experimental_data;NULL;NULL;NULL;NULL;14_11_2020_9_58_2
8;31;1;noStructureCont;query;7;1452;black;pink,yellow,black,orange,red,saddlebrown,white;120,210,300,390,480,570,660;150,180,210,240,270,300,330;51;3;3;vrlt89awtbuehfx;true;166.655;390;195;psychophysics;138681;experimental_data;NULL;NULL;NULL;NULL;14_11_2020_9_58_2
9;2;1;noStructureCont;bars;1;642;saddlebrown;saddlebrown;390;150;32;1;1;vrlt89awtbuehfx;true;166.691;390;195;psychophysics;141336;experimental_data;NULL;NULL;NULL;NULL;14_11_2020_9_58_2
9;2;1;noStructureCont;query;1;157;saddlebrown;saddlebrown;390;150;49;1;1;vrlt89awtbuehfx;true;166.643;390;195;psychophysics;142501;experimental_data;NULL;NULL;NULL;NULL;14_11_2020_9_58_2
10;1;1;noStructureCont;bars;1;998;green;green;390;210;32;1;1;vrlt89awtbuehfx;true;166.662;390;195;psychophysics;145512;experimental_data;NULL;NULL;NULL;NULL;14_11_2020_9_58_2
10;1;1;noStructureCont;query;1;270;green;green;390;210;49;1;1;vrlt89awtbuehfx;true;166.635;390;195;psychophysics;146793;experimental_data;NULL;NULL;NULL;NULL;14_11_2020_9_58_2
11;30;1;noStructureCont;bars;7;4001;orange;saddlebrown,purple,black,orange,red,yellow,green;120,210,300,390,480,570,660;150,180,210,240,270,300,330;32;4;4;vrlt89awtbuehfx;true;166.655;390;195;psychophysics;152805;experimental_data;NULL;NULL;NULL;NULL;14_11_2020_9_58_2
11;30;1;noStructureCont;query;7;1278;orange;saddlebrown,purple,black,orange,red,yellow,green;120,210,300,390,480,570,660;150,180,210,240,270,300,330;52;4;4;vrlt89awtbuehfx;true;166.661;390;195;psychophysics;155096;experimental_data;NULL;NULL;NULL;NULL;14_11_2020_9_58_2
12;32;1;noStructureCont;bars;7;4355;pink;yellow,green,black,white,purple,pink,blue;120,210,300,390,480,570,660;150,180,210,240,270,300,330;32;6;5;vrlt89awtbuehfx;false;166.662;390;195;psychophysics;161465;experimental_data;NULL;NULL;NULL;NULL;14_11_2020_9_58_2
12;32;1;noStructureCont;query;7;3388;pink;yellow,green,black,white,purple,pink,blue;120,210,300,390,480,570,660;150,180,210,240,270,300,330;53;6;5;vrlt89awtbuehfx;false;16.667;390;195;psychophysics;165863;experimental_data;NULL;NULL;NULL;NULL;14_11_2020_9_58_2
13;34;1;noStructureCont;bars;7;4775;blue;purple,white,blue,black,orange,yellow,saddlebrown;120,210,300,390,480,570,660;150,180,210,240,270,300,330;32;3;3;vrlt89awtbuehfx;true;166.668;390;195;psychophysics;172649;experimental_data;NULL;NULL;NULL;NULL;14_11_2020_9_58_2
13;34;1;noStructureCont;query;7;2171;blue;purple,white,blue,black,orange,yellow,saddlebrown;120,210,300,390,480,570,660;150,180,210,240,270,300,330;51;3;3;vrlt89awtbuehfx;true;166.647;390;195;psychophysics;175829;experimental_data;NULL;NULL;NULL;NULL;14_11_2020_9_58_2
14;27;1;noStructureCont;bars;6;2366;yellow;pink,blue,black,white,saddlebrown,yellow;120,210,300,390,480,570;180,210,240,270,300,330;32;6;6;vrlt89awtbuehfx;true;166.674;390;195;psychophysics;180217;experimental_data;NULL;NULL;NULL;NULL;14_11_2020_9_58_2
14;27;1;noStructureCont;query;6;2838;yellow;pink,blue,black,white,saddlebrown,yellow;120,210,300,390,480,570;180,210,240,270,300,330;54;6;6;vrlt89awtbuehfx;true;166.663;390;195;psychophysics;184073;experimental_data;NULL;NULL;NULL;NULL;14_11_2020_9_58_2
15;22;1;noStructureCont;bars;5;2878;green;pink,saddlebrown,green,red,orange;210,300,390,480,570;150,180,210,240,270;32;3;3;vrlt89awtbuehfx;true;16.666;390;195;psychophysics;188967;experimental_data;NULL;NULL;NULL;NULL;14_11_2020_9_58_2
15;22;1;noStructureCont;query;5;2540;green;pink,saddlebrown,green,red,orange;210,300,390,480,570;150,180,210,240,270;51;3;3;vrlt89awtbuehfx;true;166.644;390;195;psychophysics;192517;experimental_data;NULL;NULL;NULL;NULL;14_11_2020_9_58_2
16;28;1;noStructureCont;bars;6;4632;pink;purple,white,green,pink,black,yellow;120,210,300,390,480,570;180,210,240,270,300,330;32;4;4;vrlt89awtbuehfx;true;166.661;390;195;psychophysics;199160;experimental_data;NULL;NULL;NULL;NULL;14_11_2020_9_58_2
16;28;1;noStructureCont;query;6;2347;pink;purple,white,green,pink,black,yellow;120,210,300,390,480,570;180,210,240,270,300,330;52;4;4;vrlt89awtbuehfx;true;166.646;390;195;psychophysics;202517;experimental_data;NULL;NULL;NULL;NULL;14_11_2020_9_58_2
17;5;1;noStructureCont;bars;2;833;green;green,orange;300,39;210,24;32;1;1;vrlt89awtbuehfx;true;166.632;390;195;psychophysics;205365;experimental_data;NULL;NULL;NULL;NULL;14_11_2020_9_58_2
17;5;1;noStructureCont;query;2;663;green;green,orange;300,39;210,24;49;1;1;vrlt89awtbuehfx;true;166.619;390;195;psychophysics;207045;experimental_data;NULL;NULL;NULL;NULL;14_11_2020_9_58_2
18;13;1;noStructureCont;bars;3;1830;orange;orange,red,green;300,390,480;180,210,240;32;1;1;vrlt89awtbuehfx;true;166.665;390;195;psychophysics;210888;experimental_data;NULL;NULL;NULL;NULL;14_11_2020_9_58_2
18;13;1;noStructureCont;query;3;557;orange;orange,red,green;300,390,480;180,210,240;49;1;1;vrlt89awtbuehfx;true;166.671;390;195;psychophysics;212453;experimental_data;NULL;NULL;NULL;NULL;14_11_2020_9_58_2
19;12;1;noStructureCont;bars;3;1301;white;orange,white,pink;300,390,480;150,180,210;32;2;2;vrlt89awtbuehfx;true;166.655;390;195;psychophysics;215768;experimental_data;NULL;NULL;NULL;NULL;14_11_2020_9_58_2
19;12;1;noStructureCont;query;3;765;white;orange,white,pink;300,390,480;150,180,210;50;2;2;vrlt89awtbuehfx;true;166.664;390;195;psychophysics;217541;experimental_data;NULL;NULL;NULL;NULL;14_11_2020_9_58_2
20;9;1;noStructureCont;bars;2;2136;pink;pink,blue;300,39;270,3;32;1;1;vrlt89awtbuehfx;true;166.668;390;195;psychophysics;221688;experimental_data;NULL;NULL;NULL;NULL;14_11_2020_9_58_2
20;9;1;noStructureCont;query;2;1020;pink;pink,blue;300,39;270,3;49;1;1;vrlt89awtbuehfx;true;16.668;390;195;psychophysics;223721;experimental_data;NULL;NULL;NULL;NULL;14_11_2020_9_58_2
21;3;1;noStructureCont;bars;1;656;green;green;390;180;32;1;1;vrlt89awtbuehfx;true;166.672;390;195;psychophysics;226391;experimental_data;NULL;NULL;NULL;NULL;14_11_2020_9_58_2
21;3;1;noStructureCont;query;1;300;green;green;390;180;49;1;1;vrlt89awtbuehfx;true;166.679;390;195;psychophysics;227704;experimental_data;NULL;NULL;NULL;NULL;14_11_2020_9_58_2
22;15;1;noStructureCont;bars;4;2273;black;green,saddlebrown,yellow,black;210,300,390,480;180,210,240,270;32;4;4;vrlt89awtbuehfx;true;166.654;390;195;psychophysics;231992;experimental_data;NULL;NULL;NULL;NULL;14_11_2020_9_58_2
22;15;1;noStructureCont;query;4;1293;black;green,saddlebrown,yellow,black;210,300,390,480;180,210,240,270;52;4;4;vrlt89awtbuehfx;true;166.653;390;195;psychophysics;234293;experimental_data;NULL;NULL;NULL;NULL;14_11_2020_9_58_2
23;6;1;noStructureCont;bars;2;2492;red;saddlebrown,red;300,39;270,3;32;2;2;vrlt89awtbuehfx;true;166.669;390;195;psychophysics;238792;experimental_data;NULL;NULL;NULL;NULL;14_11_2020_9_58_2
23;6;1;noStructureCont;query;2;652;red;saddlebrown,red;300,39;270,3;50;2;2;vrlt89awtbuehfx;true;166.667;390;195;psychophysics;240455;experimental_data;NULL;NULL;NULL;NULL;14_11_2020_9_58_2
24;29;1;noStructureCont;bars;6;3494;saddlebrown;purple,saddlebrown,pink,white,yellow,black;120,210,300,390,480,570;180,210,240,270,300,330;32;2;2;vrlt89awtbuehfx;true;166.669;390;195;psychophysics;245960;experimental_data;NULL;NULL;NULL;NULL;14_11_2020_9_58_2
24;29;1;noStructureCont;query;6;1355;saddlebrown;purple,saddlebrown,pink,white,yellow,black;120,210,300,390,480,570;180,210,240,270,300,330;50;2;2;vrlt89awtbuehfx;true;166.633;390;195;psychophysics;248325;experimental_data;NULL;NULL;NULL;NULL;14_11_2020_9_58_2
25;14;1;noStructureCont;bars;3;2197;yellow;white,yellow,saddlebrown;300,390,480;210,240,270;32;2;2;vrlt89awtbuehfx;true;166.667;390;195;psychophysics;252533;experimental_data;NULL;NULL;NULL;NULL;14_11_2020_9_58_2
25;14;1;noStructureCont;query;3;4628;yellow;white,yellow,saddlebrown;300,390,480;210,240,270;50;2;2;vrlt89awtbuehfx;true;16.666;390;195;psychophysics;258169;experimental_data;NULL;NULL;NULL;NULL;14_11_2020_9_58_2
26;24;1;noStructureCont;bars;5;4186;blue;orange,green,saddlebrown,blue,yellow;210,300,390,480,570;150,180,210,240,270;32;4;4;vrlt89awtbuehfx;true;166.662;390;195;psychophysics;264373;experimental_data;NULL;NULL;NULL;NULL;14_11_2020_9_58_2
26;24;1;noStructureCont;query;5;1389;blue;orange,green,saddlebrown,blue,yellow;210,300,390,480,570;150,180,210,240,270;52;4;4;vrlt89awtbuehfx;true;166.649;390;195;psychophysics;266773;experimental_data;NULL;NULL;NULL;NULL;14_11_2020_9_58_2
27;33;1;noStructureCont;bars;7;4758;white;white,yellow,purple,black,pink,green,blue;120,210,300,390,480,570,660;150,180,210,240,270,300,330;32;1;1;vrlt89awtbuehfx;true;166.657;390;195;psychophysics;273541;experimental_data;NULL;NULL;NULL;NULL;14_11_2020_9_58_2
27;33;1;noStructureCont;query;7;997;white;white,yellow,purple,black,pink,green,blue;120,210,300,390,480,570,660;150,180,210,240,270,300,330;49;1;1;vrlt89awtbuehfx;true;166.694;390;195;psychophysics;275544;experimental_data;NULL;NULL;NULL;NULL;14_11_2020_9_58_2
28;4;1;noStructureCont;bars;1;689;red;red;390;270;32;1;1;vrlt89awtbuehfx;true;166.716;390;195;psychophysics;278248;experimental_data;NULL;NULL;NULL;NULL;14_11_2020_9_58_2
28;4;1;noStructureCont;query;1;398;red;red;390;270;49;1;1;vrlt89awtbuehfx;true;166.714;390;195;psychophysics;279653;experimental_data;NULL;NULL;NULL;NULL;14_11_2020_9_58_2
29;23;1;noStructureCont;bars;5;3669;orange;saddlebrown,black,yellow,orange,red;210,300,390,480,570;180,210,240,270,300;32;4;4;vrlt89awtbuehfx;true;166.664;390;195;psychophysics;285333;experimental_data;NULL;NULL;NULL;NULL;14_11_2020_9_58_2
29;23;1;noStructureCont;query;5;1583;orange;saddlebrown,black,yellow,orange,red;210,300,390,480,570;180,210,240,270,300;52;4;4;vrlt89awtbuehfx;true;166.652;390;195;psychophysics;287925;experimental_data;NULL;NULL;NULL;NULL;14_11_2020_9_58_2
30;10;1;noStructureCont;bars;3;3417;purple;pink,green,purple;300,390,480;270,300,330;32;3;3;vrlt89awtbuehfx;true;166.662;390;195;psychophysics;293352;experimental_data;NULL;NULL;NULL;NULL;14_11_2020_9_58_2
30;10;1;noStructureCont;query;3;1098;purple;pink,green,purple;300,390,480;270,300,330;51;3;3;vrlt89awtbuehfx;true;166.649;390;195;psychophysics;295461;experimental_data;NULL;NULL;NULL;NULL;14_11_2020_9_58_2
31;20;1;noStructureCont;bars;5;4389;saddlebrown;purple,saddlebrown,white,green,orange;210,300,390,480,570;150,180,210,240,270;32;2;2;vrlt89awtbuehfx;true;166.661;390;195;psychophysics;301861;experimental_data;NULL;NULL;NULL;NULL;14_11_2020_9_58_2
31;20;1;noStructureCont;query;5;1189;saddlebrown;purple,saddlebrown,white,green,orange;210,300,390,480,570;150,180,210,240,270;50;2;2;vrlt89awtbuehfx;true;166.677;390;195;psychophysics;304055;experimental_data;NULL;NULL;NULL;NULL;14_11_2020_9_58_2
32;16;1;noStructureCont;bars;4;2307;pink;pink,purple,red,yellow;210,300,390,480;180,210,240,270;32;1;1;vrlt89awtbuehfx;true;16.666;390;195;psychophysics;308376;experimental_data;NULL;NULL;NULL;NULL;14_11_2020_9_58_2
32;16;1;noStructureCont;query;4;669;pink;pink,purple,red,yellow;210,300,390,480;180,210,240,270;49;1;1;vrlt89awtbuehfx;true;166.709;390;195;psychophysics;310055;experimental_data;NULL;NULL;NULL;NULL;14_11_2020_9_58_2
33;11;1;noStructureCont;bars;3;1457;white;yellow,orange,white;300,390,480;270,300,330;32;3;3;vrlt89awtbuehfx;true;166.655;390;195;psychophysics;313525;experimental_data;NULL;NULL;NULL;NULL;14_11_2020_9_58_2
33;11;1;noStructureCont;query;3;933;white;yellow,orange,white;300,390,480;270,300,330;51;3;3;vrlt89awtbuehfx;true;166.671;390;195;psychophysics;315481;experimental_data;NULL;NULL;NULL;NULL;14_11_2020_9_58_2
34;25;1;noStructureCont;bars;6;2536;purple;blue,purple,pink,black,white,red;120,210,300,390,480,570;150,180,210,240,270,300;32;2;2;vrlt89awtbuehfx;true;16.666;390;195;psychophysics;320037;experimental_data;NULL;NULL;NULL;NULL;14_11_2020_9_58_2
34;25;1;noStructureCont;query;6;947;purple;blue,purple,pink,black,white,red;120,210,300,390,480,570;150,180,210,240,270,300;50;2;2;vrlt89awtbuehfx;true;166.668;390;195;psychophysics;322005;experimental_data;NULL;NULL;NULL;NULL;14_11_2020_9_58_2
35;18;1;noStructureCont;bars;4;4088;green;red,green,white,purple;210,300,390,480;240,270,300,330;32;2;2;vrlt89awtbuehfx;true;166.666;390;195;psychophysics;328102;experimental_data;NULL;NULL;NULL;NULL;14_11_2020_9_58_2
35;18;1;noStructureCont;query;4;620;green;red,green,white,purple;210,300,390,480;240,270,300,330;50;2;2;vrlt89awtbuehfx;true;166.659;390;195;psychophysics;329735;experimental_data;NULL;NULL;NULL;NULL;14_11_2020_9_58_2
NULL;NULL;0;NULL;end_of_block;NULL;23772;NULL;NULL;NULL;NULL;32;NULL;NULL;vrlt89awtbuehfx;NULL;NULL;NULL;NULL;html-keyboard-response;354519;experimental_data;354533;590.888;0.942857;NULL;14_11_2020_9_58_2
36;20;2;queryStructureCont;bars;5;2364;black;yellow,green,red,white,black;210,300,390,480,570;150,180,210,240,270;32;5;5;vrlt89awtbuehfx;true;166.664;390;195;psychophysics;357893;experimental_data;NULL;NULL;NULL;NULL;14_11_2020_9_58_2
36;20;2;queryStructureCont;query;5;1811;black;yellow,green,red,white,black;210,300,390,480,570;150,180,210,240,270;53;5;5;vrlt89awtbuehfx;true;166.674;390;195;psychophysics;360712;experimental_data;NULL;NULL;NULL;NULL;14_11_2020_9_58_2
37;25;2;queryStructureCont;bars;6;3268;saddlebrown;black,white,purple,red,pink,saddlebrown;120,210,300,390,480,570;150,180,210,240,270,300;32;6;6;vrlt89awtbuehfx;true;166.663;390;195;psychophysics;365991;experimental_data;NULL;NULL;NULL;NULL;14_11_2020_9_58_2
37;25;2;queryStructureCont;query;6;2753;saddlebrown;black,white,purple,red,pink,saddlebrown;120,210,300,390,480,570;150,180,210,240,270,300;54;6;6;vrlt89awtbuehfx;true;166.673;390;195;psychophysics;369752;experimental_data;NULL;NULL;NULL;NULL;14_11_2020_9_58_2
38;26;2;queryStructureCont;bars;6;5023;green;black,pink,purple,saddlebrown,yellow,green;120,210,300,390,480,570;180,210,240,270,300,330;32;6;6;vrlt89awtbuehfx;true;166.662;390;195;psychophysics;376788;experimental_data;NULL;NULL;NULL;NULL;14_11_2020_9_58_2
38;26;2;queryStructureCont;query;6;1239;green;black,pink,purple,saddlebrown,yellow,green;120,210,300,390,480,570;180,210,240,270,300,330;54;6;6;vrlt89awtbuehfx;true;166.683;390;195;psychophysics;379031;experimental_data;NULL;NULL;NULL;NULL;14_11_2020_9_58_2
39;32;2;queryStructureCont;bars;7;3617;saddlebrown;yellow,purple,pink,black,orange,blue,saddlebrown;120,210,300,390,480,570,660;150,180,210,240,270,300,330;32;7;6;vrlt89awtbuehfx;false;166.664;390;195;psychophysics;384663;experimental_data;NULL;NULL;NULL;NULL;14_11_2020_9_58_2
39;32;2;queryStructureCont;query;7;480;saddlebrown;yellow,purple,pink,black,orange,blue,saddlebrown;120,210,300,390,480,570,660;150,180,210,240,270,300,330;54;7;6;vrlt89awtbuehfx;false;166.649;390;195;psychophysics;386150;experimental_data;NULL;NULL;NULL;NULL;14_11_2020_9_58_2
40;15;2;queryStructureCont;bars;4;1137;saddlebrown;pink,yellow,green,saddlebrown;210,300,390,480;180,210,240,270;32;4;4;vrlt89awtbuehfx;true;166.643;390;195;psychophysics;389300;experimental_data;NULL;NULL;NULL;NULL;14_11_2020_9_58_2
40;15;2;queryStructureCont;query;4;956;saddlebrown;pink,yellow,green,saddlebrown;210,300,390,480;180,210,240,270;52;4;4;vrlt89awtbuehfx;true;166.639;390;195;psychophysics;391268;experimental_data;NULL;NULL;NULL;NULL;14_11_2020_9_58_2
41;6;2;queryStructureCont;bars;2;784;blue;black,blue;300,39;270,3;32;2;2;vrlt89awtbuehfx;true;16.669;390;195;psychophysics;394070;experimental_data;NULL;NULL;NULL;NULL;14_11_2020_9_58_2
41;6;2;queryStructureCont;query;2;434;blue;black,blue;300,39;270,3;50;2;2;vrlt89awtbuehfx;true;166.696;390;195;psychophysics;395511;experimental_data;NULL;NULL;NULL;NULL;14_11_2020_9_58_2
42;18;2;queryStructureCont;bars;4;1087;red;green,yellow,orange,red;210,300,390,480;240,270,300,330;32;4;4;vrlt89awtbuehfx;true;166.669;390;195;psychophysics;398631;experimental_data;NULL;NULL;NULL;NULL;14_11_2020_9_58_2
42;18;2;queryStructureCont;query;4;1183;red;green,yellow,orange,red;210,300,390,480;240,270,300,330;52;4;4;vrlt89awtbuehfx;true;166.686;390;195;psychophysics;400822;experimental_data;NULL;NULL;NULL;NULL;14_11_2020_9_58_2
43;13;2;queryStructureCont;bars;3;884;green;white,purple,green;300,390,480;180,210,240;32;3;3;vrlt89awtbuehfx;true;166.679;390;195;psychophysics;403716;experimental_data;NULL;NULL;NULL;NULL;14_11_2020_9_58_2
43;13;2;queryStructureCont;query;3;524;green;white,purple,green;300,390,480;180,210,240;51;3;3;vrlt89awtbuehfx;true;166.609;390;195;psychophysics;405252;experimental_data;NULL;NULL;NULL;NULL;14_11_2020_9_58_2
44;14;2;queryStructureCont;bars;3;497;black;blue,saddlebrown,black;300,390,480;210,240,270;32;3;3;vrlt89awtbuehfx;true;166.654;390;195;psychophysics;407767;experimental_data;NULL;NULL;NULL;NULL;14_11_2020_9_58_2
44;14;2;queryStructureCont;query;3;313;black;blue,saddlebrown,black;300,390,480;210,240,270;51;3;3;vrlt89awtbuehfx;true;166.631;390;195;psychophysics;409094;experimental_data;NULL;NULL;NULL;NULL;14_11_2020_9_58_2
45;27;2;queryStructureCont;bars;6;1949;orange;yellow,white,saddlebrown,black,pink,orange;120,210,300,390,480,570;180,210,240,270,300,330;32;6;6;vrlt89awtbuehfx;true;166.647;390;195;psychophysics;413060;experimental_data;NULL;NULL;NULL;NULL;14_11_2020_9_58_2
45;27;2;queryStructureCont;query;6;337;orange;yellow,white,saddlebrown,black,pink,orange;120,210,300,390,480,570;180,210,240,270,300,330;54;6;6;vrlt89awtbuehfx;true;166.695;390;195;psychophysics;414407;experimental_data;NULL;NULL;NULL;NULL;14_11_2020_9_58_2
46;29;2;queryStructureCont;bars;6;2735;pink;saddlebrown,white,green,blue,yellow,pink;120,210,300,390,480,570;180,210,240,270,300,330;32;6;6;vrlt89awtbuehfx;true;16.665;390;195;psychophysics;419157;experimental_data;NULL;NULL;NULL;NULL;14_11_2020_9_58_2
46;29;2;queryStructureCont;query;6;347;pink;saddlebrown,white,green,blue,yellow,pink;120,210,300,390,480,570;180,210,240,270,300,330;54;6;6;vrlt89awtbuehfx;true;166.539;390;195;psychophysics;420516;experimental_data;NULL;NULL;NULL;NULL;14_11_2020_9_58_2
47;22;2;queryStructureCont;bars;5;1147;saddlebrown;yellow,red,white,purple,saddlebrown;210,300,390,480,570;150,180,210,240,270;32;5;5;vrlt89awtbuehfx;true;166.674;390;195;psychophysics;423670;experimental_data;NULL;NULL;NULL;NULL;14_11_2020_9_58_2
47;22;2;queryStructureCont;query;5;333;saddlebrown;yellow,red,white,purple,saddlebrown;210,300,390,480,570;150,180,210,240,270;53;5;5;vrlt89awtbuehfx;true;166.653;390;195;psychophysics;425014;experimental_data;NULL;NULL;NULL;NULL;14_11_2020_9_58_2
48;11;2;queryStructureCont;bars;3;877;white;pink,blue,white;300,390,480;270,300,330;32;3;3;vrlt89awtbuehfx;true;166.653;390;195;psychophysics;427908;experimental_data;NULL;NULL;NULL;NULL;14_11_2020_9_58_2
48;11;2;queryStructureCont;query;3;400;white;pink,blue,white;300,390,480;270,300,330;51;3;3;vrlt89awtbuehfx;true;166.561;390;195;psychophysics;429316;experimental_data;NULL;NULL;NULL;NULL;14_11_2020_9_58_2
49;21;2;queryStructureCont;bars;5;1582;blue;yellow,white,red,green,blue;210,300,390,480,570;210,240,270,300,330;32;5;5;vrlt89awtbuehfx;true;166.666;390;195;psychophysics;432916;experimental_data;NULL;NULL;NULL;NULL;14_11_2020_9_58_2
49;21;2;queryStructureCont;query;5;580;blue;yellow,white,red,green,blue;210,300,390,480,570;210,240,270,300,330;53;5;5;vrlt89awtbuehfx;true;166.704;390;195;psychophysics;434502;experimental_data;NULL;NULL;NULL;NULL;14_11_2020_9_58_2
50;0;2;queryStructureCont;bars;1;692;green;green;390;180;32;1;1;vrlt89awtbuehfx;true;16.666;390;195;psychophysics;437207;experimental_data;NULL;NULL;NULL;NULL;14_11_2020_9_58_2
50;0;2;queryStructureCont;query;1;348;green;green;390;180;49;1;1;vrlt89awtbuehfx;true;16.665;390;195;psychophysics;438566;experimental_data;NULL;NULL;NULL;NULL;14_11_2020_9_58_2
51;1;2;queryStructureCont;bars;1;674;yellow;yellow;390;210;32;1;1;vrlt89awtbuehfx;true;166.679;390;195;psychophysics;441255;experimental_data;NULL;NULL;NULL;NULL;14_11_2020_9_58_2
51;1;2;queryStructureCont;query;1;287;yellow;yellow;390;210;49;1;1;vrlt89awtbuehfx;true;166.776;390;195;psychophysics;442550;experimental_data;NULL;NULL;NULL;NULL;14_11_2020_9_58_2
52;2;2;queryStructureCont;bars;1;459;saddlebrown;saddlebrown;390;150;32;1;1;vrlt89awtbuehfx;true;166.666;390;195;psychophysics;445030;experimental_data;NULL;NULL;NULL;NULL;14_11_2020_9_58_2
52;2;2;queryStructureCont;query;1;235;saddlebrown;saddlebrown;390;150;49;1;1;vrlt89awtbuehfx;true;166.554;390;195;psychophysics;446278;experimental_data;NULL;NULL;NULL;NULL;14_11_2020_9_58_2
53;4;2;queryStructureCont;bars;1;454;pink;pink;390;270;32;1;1;vrlt89awtbuehfx;true;166.743;390;195;psychophysics;448743;experimental_data;NULL;NULL;NULL;NULL;14_11_2020_9_58_2
53;4;2;queryStructureCont;query;1;268;pink;pink;390;270;49;1;1;vrlt89awtbuehfx;true;166.613;390;195;psychophysics;450020;experimental_data;NULL;NULL;NULL;NULL;14_11_2020_9_58_2
54;16;2;queryStructureCont;bars;4;665;green;yellow,pink,white,green;210,300,390,480;180,210,240,270;32;4;4;vrlt89awtbuehfx;true;166.654;390;195;psychophysics;452695;experimental_data;NULL;NULL;NULL;NULL;14_11_2020_9_58_2
54;16;2;queryStructureCont;query;4;349;green;yellow,pink,white,green;210,300,390,480;180,210,240,270;52;4;4;vrlt89awtbuehfx;true;166.665;390;195;psychophysics;454054;experimental_data;NULL;NULL;NULL;NULL;14_11_2020_9_58_2
55;23;2;queryStructureCont;bars;5;945;white;green,orange,purple,pink,white;210,300,390,480,570;180,210,240,270,300;32;5;5;vrlt89awtbuehfx;true;166.663;390;195;psychophysics;457014;experimental_data;NULL;NULL;NULL;NULL;14_11_2020_9_58_2
55;23;2;queryStructureCont;query;5;301;white;green,orange,purple,pink,white;210,300,390,480,570;180,210,240,270,300;53;5;5;vrlt89awtbuehfx;true;166.692;390;195;psychophysics;458326;experimental_data;NULL;NULL;NULL;NULL;14_11_2020_9_58_2
56;19;2;queryStructureCont;bars;4;673;yellow;black,green,white,yellow;210,300,390,480;210,240,270,300;32;4;4;vrlt89awtbuehfx;true;166.662;390;195;psychophysics;461012;experimental_data;NULL;NULL;NULL;NULL;14_11_2020_9_58_2
56;19;2;queryStructureCont;query;4;389;yellow;black,green,white,yellow;210,300,390,480;210,240,270,300;52;4;4;vrlt89awtbuehfx;true;166.638;390;195;psychophysics;462408;experimental_data;NULL;NULL;NULL;NULL;14_11_2020_9_58_2
57;10;2;queryStructureCont;bars;3;706;orange;yellow,blue,orange;300,390,480;270,300,330;32;3;3;vrlt89awtbuehfx;true;166.674;390;195;psychophysics;465127;experimental_data;NULL;NULL;NULL;NULL;14_11_2020_9_58_2
57;10;2;queryStructureCont;query;3;346;orange;yellow,blue,orange;300,390,480;270,300,330;51;3;3;vrlt89awtbuehfx;true;166.583;390;195;psychophysics;466484;experimental_data;NULL;NULL;NULL;NULL;14_11_2020_9_58_2
58;8;2;queryStructureCont;bars;2;758;red;yellow,red;300,39;210,24;32;2;2;vrlt89awtbuehfx;true;166.682;390;195;psychophysics;469255;experimental_data;NULL;NULL;NULL;NULL;14_11_2020_9_58_2
58;8;2;queryStructureCont;query;2;334;red;yellow,red;300,39;210,24;50;2;2;vrlt89awtbuehfx;true;166.738;390;195;psychophysics;470598;experimental_data;NULL;NULL;NULL;NULL;14_11_2020_9_58_2
59;28;2;queryStructureCont;bars;6;1699;black;purple,green,blue,red,orange,black;120,210,300,390,480,570;180,210,240,270,300,330;32;6;6;vrlt89awtbuehfx;true;166.678;390;195;psychophysics;474310;experimental_data;NULL;NULL;NULL;NULL;14_11_2020_9_58_2
59;28;2;queryStructureCont;query;6;478;black;purple,green,blue,red,orange,black;120,210,300,390,480,570;180,210,240,270,300,330;54;6;6;vrlt89awtbuehfx;true;166.642;390;195;psychophysics;475797;experimental_data;NULL;NULL;NULL;NULL;14_11_2020_9_58_2
60;24;2;queryStructureCont;bars;5;1017;white;green,saddlebrown,black,blue,white;210,300,390,480,570;150,180,210,240,270;32;5;5;vrlt89awtbuehfx;true;166.646;390;195;psychophysics;478820;experimental_data;NULL;NULL;NULL;NULL;14_11_2020_9_58_2
60;24;2;queryStructureCont;query;5;389;white;green,saddlebrown,black,blue,white;210,300,390,480,570;150,180,210,240,270;53;5;5;vrlt89awtbuehfx;true;166.664;390;195;psychophysics;480212;experimental_data;NULL;NULL;NULL;NULL;14_11_2020_9_58_2
61;34;2;queryStructureCont;bars;7;1763;saddlebrown;pink,purple,green,blue,black,red,saddlebrown;120,210,300,390,480,570,660;150,180,210,240,270,300,330;32;7;7;vrlt89awtbuehfx;true;166.666;390;195;psychophysics;483992;experimental_data;NULL;NULL;NULL;NULL;14_11_2020_9_58_2
61;34;2;queryStructureCont;query;7;362;saddlebrown;pink,purple,green,blue,black,red,saddlebrown;120,210,300,390,480,570,660;150,180,210,240,270,300,330;55;7;7;vrlt89awtbuehfx;true;166.754;390;195;psychophysics;485364;experimental_data;NULL;NULL;NULL;NULL;14_11_2020_9_58_2
62;9;2;queryStructureCont;bars;2;806;green;black,green;300,39;270,3;32;2;2;vrlt89awtbuehfx;true;166.673;390;195;psychophysics;488182;experimental_data;NULL;NULL;NULL;NULL;14_11_2020_9_58_2
62;9;2;queryStructureCont;query;2;321;green;black,green;300,39;270,3;50;2;2;vrlt89awtbuehfx;true;166.653;390;195;psychophysics;489507;experimental_data;NULL;NULL;NULL;NULL;14_11_2020_9_58_2
63;30;2;queryStructureCont;bars;7;2487;purple;saddlebrown,red,black,yellow,white,pink,purple;120,210,300,390,480,570,660;150,180,210,240,270,300,330;32;7;7;vrlt89awtbuehfx;true;166.661;390;195;psychophysics;494006;experimental_data;NULL;NULL;NULL;NULL;14_11_2020_9_58_2
63;30;2;queryStructureCont;query;7;384;purple;saddlebrown,red,black,yellow,white,pink,purple;120,210,300,390,480,570,660;150,180,210,240,270,300,330;55;7;7;vrlt89awtbuehfx;true;166.745;390;195;psychophysics;495398;experimental_data;NULL;NULL;NULL;NULL;14_11_2020_9_58_2
64;7;2;queryStructureCont;bars;2;801;red;orange,red;300,39;150,18;32;2;2;vrlt89awtbuehfx;true;166.668;390;195;psychophysics;498215;experimental_data;NULL;NULL;NULL;NULL;14_11_2020_9_58_2
64;7;2;queryStructureCont;query;2;497;red;orange,red;300,39;150,18;50;2;2;vrlt89awtbuehfx;true;166.695;390;195;psychophysics;499734;experimental_data;NULL;NULL;NULL;NULL;14_11_2020_9_58_2
65;17;2;queryStructureCont;bars;4;709;white;black,pink,yellow,white;210,300,390,480;180,210,240,270;32;4;4;vrlt89awtbuehfx;true;166.661;390;195;psychophysics;502454;experimental_data;NULL;NULL;NULL;NULL;14_11_2020_9_58_2
65;17;2;queryStructureCont;query;4;285;white;black,pink,yellow,white;210,300,390,480;180,210,240,270;52;4;4;vrlt89awtbuehfx;true;166.642;390;195;psychophysics;503750;experimental_data;NULL;NULL;NULL;NULL;14_11_2020_9_58_2
66;33;2;queryStructureCont;bars;7;1942;saddlebrown;green,white,red,purple,blue,yellow,saddlebrown;120,210,300,390,480,570,660;150,180,210,240,270,300,330;32;7;7;vrlt89awtbuehfx;true;166.647;390;195;psychophysics;507718;experimental_data;NULL;NULL;NULL;NULL;14_11_2020_9_58_2
66;33;2;queryStructureCont;query;7;317;saddlebrown;green,white,red,purple,blue,yellow,saddlebrown;120,210,300,390,480,570,660;150,180,210,240,270,300,330;55;7;7;vrlt89awtbuehfx;true;166.681;390;195;psychophysics;509047;experimental_data;NULL;NULL;NULL;NULL;14_11_2020_9_58_2
67;5;2;queryStructureCont;bars;2;801;black;orange,black;300,39;210,24;32;2;2;vrlt89awtbuehfx;true;166.671;390;195;psychophysics;511859;experimental_data;NULL;NULL;NULL;NULL;14_11_2020_9_58_2
67;5;2;queryStructureCont;query;2;657;black;orange,black;300,39;210,24;50;2;2;vrlt89awtbuehfx;true;166.643;390;195;psychophysics;513526;experimental_data;NULL;NULL;NULL;NULL;14_11_2020_9_58_2
68;3;2;queryStructureCont;bars;1;572;green;green;390;180;32;1;1;vrlt89awtbuehfx;true;16.663;390;195;psychophysics;516115;experimental_data;NULL;NULL;NULL;NULL;14_11_2020_9_58_2
68;3;2;queryStructureCont;query;1;263;green;green;390;180;49;1;1;vrlt89awtbuehfx;true;166.667;390;195;psychophysics;517397;experimental_data;NULL;NULL;NULL;NULL;14_11_2020_9_58_2
69;31;2;queryStructureCont;bars;7;1588;saddlebrown;orange,pink,red,blue,green,purple,saddlebrown;120,210,300,390,480,570,660;150,180,210,240,270,300,330;32;7;7;vrlt89awtbuehfx;true;166.683;390;195;psychophysics;520999;experimental_data;NULL;NULL;NULL;NULL;14_11_2020_9_58_2
69;31;2;queryStructureCont;query;7;314;saddlebrown;orange,pink,red,blue,green,purple,saddlebrown;120,210,300,390,480,570,660;150,180,210,240,270,300,330;55;7;7;vrlt89awtbuehfx;true;166.653;390;195;psychophysics;522325;experimental_data;NULL;NULL;NULL;NULL;14_11_2020_9_58_2
70;12;2;queryStructureCont;bars;3;675;blue;purple,white,blue;300,390,480;150,180,210;32;3;3;vrlt89awtbuehfx;true;166.621;390;195;psychophysics;525011;experimental_data;NULL;NULL;NULL;NULL;14_11_2020_9_58_2
70;12;2;queryStructureCont;query;3;290;blue;purple,white,blue;300,390,480;150,180,210;51;3;3;vrlt89awtbuehfx;true;166.576;390;195;psychophysics;526307;experimental_data;NULL;NULL;NULL;NULL;14_11_2020_9_58_2
NULL;NULL;0;NULL;end_of_block;NULL;40032;NULL;NULL;NULL;NULL;32;NULL;NULL;vrlt89awtbuehfx;NULL;NULL;NULL;NULL;html-keyboard-response;567351;experimental_data;567365;945.608;0.971429;NULL;14_11_2020_9_58_2
71;6;3;queryStructureExp;bars;2;1534;blue;red,blue;390,3;270,3;32;2;2;vrlt89awtbuehfx;true;166.662;390;195;psychophysics;569893;experimental_data;NULL;NULL;NULL;NULL;14_11_2020_9_58_2
71;6;3;queryStructureExp;query;2;1106;blue;red,blue;390,3;270,3;50;2;2;vrlt89awtbuehfx;true;16.668;390;195;psychophysics;572005;experimental_data;NULL;NULL;NULL;NULL;14_11_2020_9_58_2
72;31;3;queryStructureExp;bars;7;6418;black;blue,purple,white,green,orange,pink,black;480,390,300,210,570,120,660;150,180,210,240,270,300,330;32;7;7;vrlt89awtbuehfx;true;166.665;390;195;psychophysics;580441;experimental_data;NULL;NULL;NULL;NULL;14_11_2020_9_58_2
72;31;3;queryStructureExp;query;7;1578;black;blue,purple,white,green,orange,pink,black;480,390,300,210,570,120,660;150,180,210,240,270,300,330;55;7;7;vrlt89awtbuehfx;true;166.655;390;195;psychophysics;583029;experimental_data;NULL;NULL;NULL;NULL;14_11_2020_9_58_2
73;0;3;queryStructureExp;bars;1;771;blue;blue;390;180;32;1;1;vrlt89awtbuehfx;true;16.666;390;195;psychophysics;585813;experimental_data;NULL;NULL;NULL;NULL;14_11_2020_9_58_2
73;0;3;queryStructureExp;query;1;271;blue;blue;390;180;49;1;1;vrlt89awtbuehfx;true;166.671;390;195;psychophysics;587094;experimental_data;NULL;NULL;NULL;NULL;14_11_2020_9_58_2
74;26;3;queryStructureExp;bars;6;9565;purple;red,yellow,orange,pink,green,purple;300,570,390,480,210,120;180,210,240,270,300,330;32;6;6;vrlt89awtbuehfx;true;166.662;390;195;psychophysics;598678;experimental_data;NULL;NULL;NULL;NULL;14_11_2020_9_58_2
74;26;3;queryStructureExp;query;6;2425;purple;red,yellow,orange,pink,green,purple;300,570,390,480,210,120;180,210,240,270,300,330;54;6;6;vrlt89awtbuehfx;true;166.653;390;195;psychophysics;602115;experimental_data;NULL;NULL;NULL;NULL;14_11_2020_9_58_2
75;11;3;queryStructureExp;bars;3;3049;red;yellow,black,red;480,390,300;270,300,330;32;3;3;vrlt89awtbuehfx;true;166.666;390;195;psychophysics;607174;experimental_data;NULL;NULL;NULL;NULL;14_11_2020_9_58_2
75;11;3;queryStructureExp;query;3;558;red;yellow,black,red;480,390,300;270,300,330;51;3;3;vrlt89awtbuehfx;true;166.732;390;195;psychophysics;608742;experimental_data;NULL;NULL;NULL;NULL;14_11_2020_9_58_2
76;5;3;queryStructureExp;bars;2;724;purple;white,purple;300,39;210,24;32;2;2;vrlt89awtbuehfx;true;16.665;390;195;psychophysics;611493;experimental_data;NULL;NULL;NULL;NULL;14_11_2020_9_58_2
76;5;3;queryStructureExp;query;2;462;purple;white,purple;300,39;210,24;50;2;2;vrlt89awtbuehfx;true;166.687;390;195;psychophysics;612966;experimental_data;NULL;NULL;NULL;NULL;14_11_2020_9_58_2
77;10;3;queryStructureExp;bars;3;1027;pink;black,orange,pink;300,480,390;270,300,330;32;3;3;vrlt89awtbuehfx;true;166.663;390;195;psychophysics;616003;experimental_data;NULL;NULL;NULL;NULL;14_11_2020_9_58_2
77;10;3;queryStructureExp;query;3;465;pink;black,orange,pink;300,480,390;270,300,330;51;3;3;vrlt89awtbuehfx;true;166.604;390;195;psychophysics;617475;experimental_data;NULL;NULL;NULL;NULL;14_11_2020_9_58_2
78;13;3;queryStructureExp;bars;3;571;orange;purple,pink,orange;480,300,390;180,210,240;32;3;3;vrlt89awtbuehfx;true;166.681;390;195;psychophysics;620054;experimental_data;NULL;NULL;NULL;NULL;14_11_2020_9_58_2
78;13;3;queryStructureExp;query;3;750;orange;purple,pink,orange;480,300,390;180,210,240;51;3;3;vrlt89awtbuehfx;true;166.653;390;195;psychophysics;621813;experimental_data;NULL;NULL;NULL;NULL;14_11_2020_9_58_2
79;2;3;queryStructureExp;bars;1;549;purple;purple;390;150;32;1;1;vrlt89awtbuehfx;true;166.728;390;195;psychophysics;624374;experimental_data;NULL;NULL;NULL;NULL;14_11_2020_9_58_2
79;2;3;queryStructureExp;query;1;274;purple;purple;390;150;49;1;1;vrlt89awtbuehfx;true;166.761;390;195;psychophysics;625655;experimental_data;NULL;NULL;NULL;NULL;14_11_2020_9_58_2
80;25;3;queryStructureExp;bars;6;3683;orange;purple,red,pink,green,black,orange;120,210,480,300,570,390;150,180,210,240,270,300;32;6;6;vrlt89awtbuehfx;true;166.654;390;195;psychophysics;631351;experimental_data;NULL;NULL;NULL;NULL;14_11_2020_9_58_2
80;25;3;queryStructureExp;query;6;363;orange;purple,red,pink,green,black,orange;120,210,480,300,570,390;150,180,210,240,270,300;54;6;6;vrlt89awtbuehfx;true;166.628;390;195;psychophysics;632725;experimental_data;NULL;NULL;NULL;NULL;14_11_2020_9_58_2
81;9;3;queryStructureExp;bars;2;627;green;red,green;300,39;270,3;32;2;2;vrlt89awtbuehfx;true;166.738;390;195;psychophysics;635363;experimental_data;NULL;NULL;NULL;NULL;14_11_2020_9_58_2
81;9;3;queryStructureExp;query;2;368;green;red,green;300,39;270,3;50;2;2;vrlt89awtbuehfx;true;166.667;390;195;psychophysics;636742;experimental_data;NULL;NULL;NULL;NULL;14_11_2020_9_58_2
82;34;3;queryStructureExp;bars;7;1873;red;pink,black,purple,blue,saddlebrown,white,red;390,660,480,120,570,210,300;150,180,210,240,270,300,330;32;7;7;vrlt89awtbuehfx;true;166.662;390;195;psychophysics;640629;experimental_data;NULL;NULL;NULL;NULL;14_11_2020_9_58_2
82;34;3;queryStructureExp;query;7;310;red;pink,black,purple,blue,saddlebrown,white,red;390,660,480,120,570,210,300;150,180,210,240,270,300,330;55;7;7;vrlt89awtbuehfx;true;166.541;390;195;psychophysics;641955;experimental_data;NULL;NULL;NULL;NULL;14_11_2020_9_58_2
83;24;3;queryStructureExp;bars;5;1545;purple;black,blue,red,saddlebrown,purple;210,570,300,480,390;150,180,210,240,270;32;5;5;vrlt89awtbuehfx;true;166.639;390;195;psychophysics;645509;experimental_data;NULL;NULL;NULL;NULL;14_11_2020_9_58_2
83;24;3;queryStructureExp;query;5;357;purple;black,blue,red,saddlebrown,purple;210,570,300,480,390;150,180,210,240,270;53;5;5;vrlt89awtbuehfx;true;166.596;390;195;psychophysics;646883;experimental_data;NULL;NULL;NULL;NULL;14_11_2020_9_58_2
84;20;3;queryStructureExp;bars;5;2119;orange;green,white,red,yellow,orange;300,390,570,210,480;150,180,210,240,270;32;5;5;vrlt89awtbuehfx;true;166.662;390;195;psychophysics;651011;experimental_data;NULL;NULL;NULL;NULL;14_11_2020_9_58_2
84;20;3;queryStructureExp;query;5;382;orange;green,white,red,yellow,orange;300,390,570,210,480;150,180,210,240,270;53;5;5;vrlt89awtbuehfx;true;166.627;390;195;psychophysics;652403;experimental_data;NULL;NULL;NULL;NULL;14_11_2020_9_58_2
85;29;3;queryStructureExp;bars;6;2134;blue;purple,white,yellow,orange,green,blue;210,120,390,480,570,300;180,210,240,270,300,330;32;6;6;vrlt89awtbuehfx;true;166.656;390;195;psychophysics;656547;experimental_data;NULL;NULL;NULL;NULL;14_11_2020_9_58_2
85;29;3;queryStructureExp;query;6;220;blue;purple,white,yellow,orange,green,blue;210,120,390,480,570,300;180,210,240,270,300,330;54;6;6;vrlt89awtbuehfx;true;166.638;390;195;psychophysics;657779;experimental_data;NULL;NULL;NULL;NULL;14_11_2020_9_58_2
86;4;3;queryStructureExp;bars;1;1152;red;red;390;270;32;1;1;vrlt89awtbuehfx;true;166.662;390;195;psychophysics;660949;experimental_data;NULL;NULL;NULL;NULL;14_11_2020_9_58_2
86;4;3;queryStructureExp;query;1;14;red;red;390;270;49;1;1;vrlt89awtbuehfx;true;NULL;390;195;psychophysics;661971;experimental_data;NULL;NULL;NULL;NULL;14_11_2020_9_58_2
87;19;3;queryStructureExp;bars;4;792;blue;yellow,saddlebrown,pink,blue;300,390,480,210;210,240,270,300;32;4;4;vrlt89awtbuehfx;true;166.696;390;195;psychophysics;664774;experimental_data;NULL;NULL;NULL;NULL;14_11_2020_9_58_2
87;19;3;queryStructureExp;query;4;29;blue;yellow,saddlebrown,pink,blue;300,390,480,210;210,240,270,300;52;4;4;vrlt89awtbuehfx;true;16.669;390;195;psychophysics;665811;experimental_data;NULL;NULL;NULL;NULL;14_11_2020_9_58_2
88;28;3;queryStructureExp;bars;6;2522;saddlebrown;purple,pink,orange,red,blue,saddlebrown;390,570,480,300,120,210;180,210,240,270,300,330;32;6;6;vrlt89awtbuehfx;true;166.665;390;195;psychophysics;670341;experimental_data;NULL;NULL;NULL;NULL;14_11_2020_9_58_2
88;28;3;queryStructureExp;query;6;207;saddlebrown;purple,pink,orange,red,blue,saddlebrown;390,570,480,300,120,210;180,210,240,270,300,330;54;6;6;vrlt89awtbuehfx;true;16.65;390;195;psychophysics;671555;experimental_data;NULL;NULL;NULL;NULL;14_11_2020_9_58_2
89;1;3;queryStructureExp;bars;1;555;black;black;390;210;32;1;1;vrlt89awtbuehfx;true;166.638;390;195;psychophysics;674118;experimental_data;NULL;NULL;NULL;NULL;14_11_2020_9_58_2
89;1;3;queryStructureExp;query;1;109;black;black;390;210;49;1;1;vrlt89awtbuehfx;true;166.655;390;195;psychophysics;675238;experimental_data;NULL;NULL;NULL;NULL;14_11_2020_9_58_2
90;30;3;queryStructureExp;bars;7;2852;pink;saddlebrown,green,white,red,yellow,blue,pink;660,570,480,390,210,120,300;150,180,210,240,270,300,330;32;7;7;vrlt89awtbuehfx;true;166.681;390;195;psychophysics;680102;experimental_data;NULL;NULL;NULL;NULL;14_11_2020_9_58_2
90;30;3;queryStructureExp;query;7;286;pink;saddlebrown,green,white,red,yellow,blue,pink;660,570,480,390,210,120,300;150,180,210,240,270,300,330;55;7;7;vrlt89awtbuehfx;true;166.736;390;195;psychophysics;681397;experimental_data;NULL;NULL;NULL;NULL;14_11_2020_9_58_2
91;32;3;queryStructureExp;bars;7;1681;purple;green,red,black,blue,saddlebrown,white,purple;390,570,210,300,120,660,480;150,180,210,240,270,300,330;32;7;7;vrlt89awtbuehfx;true;166.647;390;195;psychophysics;685091;experimental_data;NULL;NULL;NULL;NULL;14_11_2020_9_58_2
91;32;3;queryStructureExp;query;7;195;purple;green,red,black,blue,saddlebrown,white,purple;390,570,210,300,120,660,480;150,180,210,240,270,300,330;55;7;7;vrlt89awtbuehfx;true;166.686;390;195;psychophysics;686294;experimental_data;NULL;NULL;NULL;NULL;14_11_2020_9_58_2
92;18;3;queryStructureExp;bars;4;606;white;orange,red,green,white;390,300,480,210;240,270,300,330;32;4;4;vrlt89awtbuehfx;true;166.654;390;195;psychophysics;688915;experimental_data;NULL;NULL;NULL;NULL;14_11_2020_9_58_2
92;18;3;queryStructureExp;query;4;224;white;orange,red,green,white;390,300,480,210;240,270,300,330;52;4;4;vrlt89awtbuehfx;true;166.478;390;195;psychophysics;690149;experimental_data;NULL;NULL;NULL;NULL;14_11_2020_9_58_2
93;33;3;queryStructureExp;bars;7;1044;purple;orange,black,yellow,saddlebrown,blue,white,purple;120,480,300,660,570,210,390;150,180,210,240,270,300,330;32;7;7;vrlt89awtbuehfx;true;166.687;390;195;psychophysics;693203;experimental_data;NULL;NULL;NULL;NULL;14_11_2020_9_58_2
93;33;3;queryStructureExp;query;7;213;purple;orange,black,yellow,saddlebrown,blue,white,purple;120,480,300,660,570,210,390;150,180,210,240,270,300,330;55;7;7;vrlt89awtbuehfx;true;166.824;390;195;psychophysics;694422;experimental_data;NULL;NULL;NULL;NULL;14_11_2020_9_58_2
94;14;3;queryStructureExp;bars;3;382;saddlebrown;white,pink,saddlebrown;390,300,480;210,240,270;32;3;3;vrlt89awtbuehfx;true;166.685;390;195;psychophysics;696819;experimental_data;NULL;NULL;NULL;NULL;14_11_2020_9_58_2
94;14;3;queryStructureExp;query;3;225;saddlebrown;white,pink,saddlebrown;390,300,480;210,240,270;51;3;3;vrlt89awtbuehfx;true;166.662;390;195;psychophysics;698054;experimental_data;NULL;NULL;NULL;NULL;14_11_2020_9_58_2
95;7;3;queryStructureExp;bars;2;506;purple;blue,purple;390,3;150,18;32;2;2;vrlt89awtbuehfx;true;166.611;390;195;psychophysics;700579;experimental_data;NULL;NULL;NULL;NULL;14_11_2020_9_58_2
95;7;3;queryStructureExp;query;2;146;purple;blue,purple;390,3;150,18;50;2;2;vrlt89awtbuehfx;true;166.626;390;195;psychophysics;701735;experimental_data;NULL;NULL;NULL;NULL;14_11_2020_9_58_2
96;17;3;queryStructureExp;bars;4;457;saddlebrown;green,pink,purple,saddlebrown;300,210,480,390;180,210,240,270;32;4;4;vrlt89awtbuehfx;true;166.606;390;195;psychophysics;704211;experimental_data;NULL;NULL;NULL;NULL;14_11_2020_9_58_2
96;17;3;queryStructureExp;query;4;13;saddlebrown;green,pink,purple,saddlebrown;300,210,480,390;180,210,240,270;52;4;4;vrlt89awtbuehfx;true;16.716;390;195;psychophysics;705235;experimental_data;NULL;NULL;NULL;NULL;14_11_2020_9_58_2
97;3;3;queryStructureExp;bars;1;646;saddlebrown;saddlebrown;390;180;32;1;1;vrlt89awtbuehfx;true;166.633;390;195;psychophysics;707891;experimental_data;NULL;NULL;NULL;NULL;14_11_2020_9_58_2
97;3;3;queryStructureExp;query;1;116;saddlebrown;saddlebrown;390;180;49;1;1;vrlt89awtbuehfx;true;166.998;390;195;psychophysics;709012;experimental_data;NULL;NULL;NULL;NULL;14_11_2020_9_58_2
98;8;3;queryStructureExp;bars;2;276;orange;pink,orange;300,39;210,24;32;2;2;vrlt89awtbuehfx;true;166.593;390;195;psychophysics;711299;experimental_data;NULL;NULL;NULL;NULL;14_11_2020_9_58_2
98;8;3;queryStructureExp;query;2;322;orange;pink,orange;300,39;210,24;50;2;2;vrlt89awtbuehfx;true;166.632;390;195;psychophysics;712630;experimental_data;NULL;NULL;NULL;NULL;14_11_2020_9_58_2
99;21;3;queryStructureExp;bars;5;183;blue;saddlebrown,pink,white,red,blue;480,390,210,570,300;210,240,270,300,330;32;5;5;vrlt89awtbuehfx;true;166.685;390;195;psychophysics;714854;experimental_data;NULL;NULL;NULL;NULL;14_11_2020_9_58_2
99;21;3;queryStructureExp;query;5;509;blue;saddlebrown,pink,white,red,blue;480,390,210,570,300;210,240,270,300,330;53;5;5;vrlt89awtbuehfx;true;166.671;390;195;psychophysics;716371;experimental_data;NULL;NULL;NULL;NULL;14_11_2020_9_58_2
100;27;3;queryStructureExp;bars;6;1820;green;yellow,pink,purple,orange,white,green;480,570,390,120,210,300;180,210,240,270,300,330;32;6;6;vrlt89awtbuehfx;true;166.674;390;195;psychophysics;720199;experimental_data;NULL;NULL;NULL;NULL;14_11_2020_9_58_2
100;27;3;queryStructureExp;query;6;289;green;yellow,pink,purple,orange,white,green;480,570,390,120,210,300;180,210,240,270,300,330;54;6;6;vrlt89awtbuehfx;true;16.677;390;195;psychophysics;721492;experimental_data;NULL;NULL;NULL;NULL;14_11_2020_9_58_2
101;22;3;queryStructureExp;bars;5;678;yellow;orange,black,white,red,yellow;390,300,210,570,480;150,180,210,240,270;32;5;5;vrlt89awtbuehfx;true;166.671;390;195;psychophysics;724181;experimental_data;NULL;NULL;NULL;NULL;14_11_2020_9_58_2
101;22;3;queryStructureExp;query;5;127;yellow;orange,black,white,red,yellow;390,300,210,570,480;150,180,210,240,270;53;5;5;vrlt89awtbuehfx;true;166.723;390;195;psychophysics;725315;experimental_data;NULL;NULL;NULL;NULL;14_11_2020_9_58_2
102;16;3;queryStructureExp;bars;4;360;saddlebrown;pink,white,purple,saddlebrown;210,480,390,300;180,210,240,270;32;4;4;vrlt89awtbuehfx;true;16.674;390;195;psychophysics;727686;experimental_data;NULL;NULL;NULL;NULL;14_11_2020_9_58_2
102;16;3;queryStructureExp;query;4;77;saddlebrown;pink,white,purple,saddlebrown;210,480,390,300;180,210,240,270;52;4;4;vrlt89awtbuehfx;true;166.418;390;195;psychophysics;728773;experimental_data;NULL;NULL;NULL;NULL;14_11_2020_9_58_2
103;12;3;queryStructureExp;bars;3;574;white;yellow,green,white;390,300,480;150,180,210;32;3;3;vrlt89awtbuehfx;true;166.644;390;195;psychophysics;731363;experimental_data;NULL;NULL;NULL;NULL;14_11_2020_9_58_2
103;12;3;queryStructureExp;query;3;1101;white;yellow,green,white;390,300,480;150,180,210;51;3;3;vrlt89awtbuehfx;true;16.664;390;195;psychophysics;733475;experimental_data;NULL;NULL;NULL;NULL;14_11_2020_9_58_2
104;23;3;queryStructureExp;bars;5;500;orange;black,yellow,purple,pink,orange;480,390,570,210,300;180,210,240,270,300;32;5;5;vrlt89awtbuehfx;true;166.633;390;195;psychophysics;735989;experimental_data;NULL;NULL;NULL;NULL;14_11_2020_9_58_2
104;23;3;queryStructureExp;query;5;318;orange;black,yellow,purple,pink,orange;480,390,570,210,300;180,210,240,270,300;53;5;5;vrlt89awtbuehfx;true;166.573;390;195;psychophysics;737315;experimental_data;NULL;NULL;NULL;NULL;14_11_2020_9_58_2
105;15;3;queryStructureExp;bars;4;600;black;red,purple,blue,black;210,480,300,390;180,210,240,270;32;4;4;vrlt89awtbuehfx;true;166.667;390;195;psychophysics;739926;experimental_data;NULL;NULL;NULL;NULL;14_11_2020_9_58_2
105;15;3;queryStructureExp;query;4;257;black;red,purple,blue,black;210,480,300,390;180,210,240,270;52;4;4;vrlt89awtbuehfx;true;166.743;390;195;psychophysics;741189;experimental_data;NULL;NULL;NULL;NULL;14_11_2020_9_58_2
NULL;NULL;0;NULL;end_of_block;NULL;107080;NULL;NULL;NULL;NULL;32;NULL;NULL;vrlt89awtbuehfx;NULL;NULL;NULL;NULL;html-keyboard-response;849283;experimental_data;849296;141.549;1;NULL;14_11_2020_9_58_2
106;16;4;noStructureExp;bars;4;3044;red;red,black,white,blue;210,480,390,300;180,210,240,270;32;1;1;vrlt89awtbuehfx;true;166.663;390;195;psychophysics;853334;experimental_data;NULL;NULL;NULL;NULL;14_11_2020_9_58_2
106;16;4;noStructureExp;query;4;1306;red;red,black,white,blue;210,480,390,300;180,210,240,270;49;1;1;vrlt89awtbuehfx;true;166.646;390;195;psychophysics;855650;experimental_data;NULL;NULL;NULL;NULL;14_11_2020_9_58_2
107;11;4;noStructureExp;bars;3;1754;black;purple,pink,black;480,390,300;270,300,330;32;3;3;vrlt89awtbuehfx;true;166.657;390;195;psychophysics;859415;experimental_data;NULL;NULL;NULL;NULL;14_11_2020_9_58_2
107;11;4;noStructureExp;query;3;1385;black;purple,pink,black;480,390,300;270,300,330;51;3;3;vrlt89awtbuehfx;true;166.679;390;195;psychophysics;861811;experimental_data;NULL;NULL;NULL;NULL;14_11_2020_9_58_2
108;6;4;noStructureExp;bars;2;1046;orange;green,orange;390,3;270,3;32;2;2;vrlt89awtbuehfx;true;166.689;390;195;psychophysics;864869;experimental_data;NULL;NULL;NULL;NULL;14_11_2020_9_58_2
108;6;4;noStructureExp;query;2;591;orange;green,orange;390,3;270,3;50;2;2;vrlt89awtbuehfx;true;166.721;390;195;psychophysics;866469;experimental_data;NULL;NULL;NULL;NULL;14_11_2020_9_58_2
109;5;4;noStructureExp;bars;2;1137;red;red,green;300,39;210,24;32;1;1;vrlt89awtbuehfx;true;166.656;390;195;psychophysics;869622;experimental_data;NULL;NULL;NULL;NULL;14_11_2020_9_58_2
109;5;4;noStructureExp;query;2;856;red;red,green;300,39;210,24;49;1;1;vrlt89awtbuehfx;true;166.705;390;195;psychophysics;871494;experimental_data;NULL;NULL;NULL;NULL;14_11_2020_9_58_2
110;2;4;noStructureExp;bars;1;596;white;white;390;150;32;1;1;vrlt89awtbuehfx;true;166.712;390;195;psychophysics;874102;experimental_data;NULL;NULL;NULL;NULL;14_11_2020_9_58_2
110;2;4;noStructureExp;query;1;350;white;white;390;150;49;1;1;vrlt89awtbuehfx;true;166.609;390;195;psychophysics;875461;experimental_data;NULL;NULL;NULL;NULL;14_11_2020_9_58_2
111;28;4;noStructureExp;bars;6;6513;white;purple,blue,orange,white,red,green;390,570,480,300,120,210;180,210,240,270,300,330;32;4;4;vrlt89awtbuehfx;true;166.663;390;195;psychophysics;883989;experimental_data;NULL;NULL;NULL;NULL;14_11_2020_9_58_2
111;28;4;noStructureExp;query;6;1675;white;purple,blue,orange,white,red,green;390,570,480,300,120,210;180,210,240,270,300,330;52;4;4;vrlt89awtbuehfx;true;166.662;390;195;psychophysics;886678;experimental_data;NULL;NULL;NULL;NULL;14_11_2020_9_58_2
112;7;4;noStructureExp;bars;2;1182;black;purple,black;390,3;150,18;32;2;2;vrlt89awtbuehfx;true;166.636;390;195;psychophysics;889874;experimental_data;NULL;NULL;NULL;NULL;14_11_2020_9_58_2
112;7;4;noStructureExp;query;2;388;black;purple,black;390,3;150,18;50;2;2;vrlt89awtbuehfx;true;166.673;390;195;psychophysics;891266;experimental_data;NULL;NULL;NULL;NULL;14_11_2020_9_58_2
113;33;4;noStructureExp;bars;7;4592;black;black,yellow,purple,white,saddlebrown,green,orange;120,480,300,660,570,210,390;150,180,210,240,270,300,330;32;1;1;vrlt89awtbuehfx;true;166.662;390;195;psychophysics;897866;experimental_data;NULL;NULL;NULL;NULL;14_11_2020_9_58_2
113;33;4;noStructureExp;query;7;1143;black;black,yellow,purple,white,saddlebrown,green,orange;120,480,300,660,570,210,390;150,180,210,240,270,300,330;49;1;1;vrlt89awtbuehfx;true;166.672;390;195;psychophysics;900018;experimental_data;NULL;NULL;NULL;NULL;14_11_2020_9_58_2
114;22;4;noStructureExp;bars;5;4643;pink;blue,white,pink,green,saddlebrown;390,300,210,570,480;150,180,210,240,270;32;3;3;vrlt89awtbuehfx;true;166.658;390;195;psychophysics;906674;experimental_data;NULL;NULL;NULL;NULL;14_11_2020_9_58_2
114;22;4;noStructureExp;query;5;1204;pink;blue,white,pink,green,saddlebrown;390,300,210,570,480;150,180,210,240,270;51;3;3;vrlt89awtbuehfx;true;166.661;390;195;psychophysics;908882;experimental_data;NULL;NULL;NULL;NULL;14_11_2020_9_58_2
115;19;4;noStructureExp;bars;4;2489;black;pink,black,white,red;300,390,480,210;210,240,270,300;32;2;2;vrlt89awtbuehfx;true;166.678;390;195;psychophysics;913382;experimental_data;NULL;NULL;NULL;NULL;14_11_2020_9_58_2
115;19;4;noStructureExp;query;4;1388;black;pink,black,white,red;300,390,480,210;210,240,270,300;50;2;2;vrlt89awtbuehfx;true;166.655;390;195;psychophysics;915781;experimental_data;NULL;NULL;NULL;NULL;14_11_2020_9_58_2
116;25;4;noStructureExp;bars;6;3775;yellow;purple,yellow,orange,pink,white,black;120,210,480,300,570,390;150,180,210,240,270,300;32;2;2;vrlt89awtbuehfx;true;166.662;390;195;psychophysics;921575;experimental_data;NULL;NULL;NULL;NULL;14_11_2020_9_58_2
116;25;4;noStructureExp;query;6;1131;yellow;purple,yellow,orange,pink,white,black;120,210,480,300,570,390;150,180,210,240,270,300;50;2;2;vrlt89awtbuehfx;true;166.683;390;195;psychophysics;923718;experimental_data;NULL;NULL;NULL;NULL;14_11_2020_9_58_2
117;20;4;noStructureExp;bars;5;2576;white;green,white,pink,black,red;300,390,570,210,480;150,180,210,240,270;32;2;2;vrlt89awtbuehfx;true;166.667;390;195;psychophysics;928306;experimental_data;NULL;NULL;NULL;NULL;14_11_2020_9_58_2
117;20;4;noStructureExp;query;5;1110;white;green,white,pink,black,red;300,390,570,210,480;150,180,210,240,270;50;2;2;vrlt89awtbuehfx;true;166.684;390;195;psychophysics;930420;experimental_data;NULL;NULL;NULL;NULL;14_11_2020_9_58_2
118;34;4;noStructureExp;bars;7;3550;orange;green,red,orange,yellow,pink,saddlebrown,blue;390,660,480,120,570,210,300;150,180,210,240,270,300,330;32;3;3;vrlt89awtbuehfx;true;166.656;390;195;psychophysics;935986;experimental_data;NULL;NULL;NULL;NULL;14_11_2020_9_58_2
118;34;4;noStructureExp;query;7;1822;orange;green,red,orange,yellow,pink,saddlebrown,blue;390,660,480,120,570,210,300;150,180,210,240,270,300,330;51;3;3;vrlt89awtbuehfx;true;166.653;390;195;psychophysics;938818;experimental_data;NULL;NULL;NULL;NULL;14_11_2020_9_58_2
119;21;4;noStructureExp;bars;5;2780;blue;yellow,orange,saddlebrown,black,blue;480,390,210,570,300;210,240,270,300,330;32;5;4;vrlt89awtbuehfx;false;166.672;390;195;psychophysics;943604;experimental_data;NULL;NULL;NULL;NULL;14_11_2020_9_58_2
119;21;4;noStructureExp;query;5;1514;blue;yellow,orange,saddlebrown,black,blue;480,390,210,570,300;210,240,270,300,330;52;5;4;vrlt89awtbuehfx;false;166.642;390;195;psychophysics;946134;experimental_data;NULL;NULL;NULL;NULL;14_11_2020_9_58_2
120;8;4;noStructureExp;bars;2;1764;purple;orange,purple;300,39;210,24;32;2;2;vrlt89awtbuehfx;true;166.644;390;195;psychophysics;949905;experimental_data;NULL;NULL;NULL;NULL;14_11_2020_9_58_2
120;8;4;noStructureExp;query;2;870;purple;orange,purple;300,39;210,24;50;2;2;vrlt89awtbuehfx;true;166.696;390;195;psychophysics;951780;experimental_data;NULL;NULL;NULL;NULL;14_11_2020_9_58_2
121;29;4;noStructureExp;bars;6;3979;white;saddlebrown,white,pink,blue,orange,yellow;210,120,390,480,570,300;180,210,240,270,300,330;32;2;2;vrlt89awtbuehfx;true;166.667;390;195;psychophysics;957781;experimental_data;NULL;NULL;NULL;NULL;14_11_2020_9_58_2
121;29;4;noStructureExp;query;6;1213;white;saddlebrown,white,pink,blue,orange,yellow;210,120,390,480,570,300;180,210,240,270,300,330;50;2;2;vrlt89awtbuehfx;true;166.664;390;195;psychophysics;960004;experimental_data;NULL;NULL;NULL;NULL;14_11_2020_9_58_2
122;30;4;noStructureExp;bars;7;4514;white;blue,black,yellow,white,red,orange,green;660,570,480,390,210,120,300;150,180,210,240,270,300,330;32;4;4;vrlt89awtbuehfx;true;166.661;390;195;psychophysics;966532;experimental_data;NULL;NULL;NULL;NULL;14_11_2020_9_58_2
122;30;4;noStructureExp;query;7;2413;white;blue,black,yellow,white,red,orange,green;660,570,480,390,210,120,300;150,180,210,240,270,300,330;52;4;4;vrlt89awtbuehfx;true;166.652;390;195;psychophysics;969955;experimental_data;NULL;NULL;NULL;NULL;14_11_2020_9_58_2
123;23;4;noStructureExp;bars;5;2612;green;orange,blue,yellow,green,white;480,390,570,210,300;180,210,240,270,300;32;4;4;vrlt89awtbuehfx;true;166.663;390;195;psychophysics;974580;experimental_data;NULL;NULL;NULL;NULL;14_11_2020_9_58_2
123;23;4;noStructureExp;query;5;1770;green;orange,blue,yellow,green,white;480,390,570,210,300;180,210,240,270,300;52;4;4;vrlt89awtbuehfx;true;166.655;390;195;psychophysics;977361;experimental_data;NULL;NULL;NULL;NULL;14_11_2020_9_58_2
124;14;4;noStructureExp;bars;3;2472;white;yellow,white,pink;390,300,480;210,240,270;32;2;2;vrlt89awtbuehfx;true;166.669;390;195;psychophysics;981846;experimental_data;NULL;NULL;NULL;NULL;14_11_2020_9_58_2
124;14;4;noStructureExp;query;3;1004;white;yellow,white,pink;390,300,480;210,240,270;50;2;2;vrlt89awtbuehfx;true;166.655;390;195;psychophysics;983862;experimental_data;NULL;NULL;NULL;NULL;14_11_2020_9_58_2
125;3;4;noStructureExp;bars;1;618;red;red;390;180;32;1;1;vrlt89awtbuehfx;true;166.678;390;195;psychophysics;986501;experimental_data;NULL;NULL;NULL;NULL;14_11_2020_9_58_2
125;3;4;noStructureExp;query;1;122;red;red;390;180;49;1;1;vrlt89awtbuehfx;true;166.664;390;195;psychophysics;987633;experimental_data;NULL;NULL;NULL;NULL;14_11_2020_9_58_2
126;24;4;noStructureExp;bars;5;3694;green;black,pink,blue,green,purple;210,570,300,480,390;150,180,210,240,270;32;4;4;vrlt89awtbuehfx;true;166.665;390;195;psychophysics;993346;experimental_data;NULL;NULL;NULL;NULL;14_11_2020_9_58_2
126;24;4;noStructureExp;query;5;2148;green;black,pink,blue,green,purple;210,570,300,480,390;150,180,210,240,270;52;4;4;vrlt89awtbuehfx;true;166.667;390;195;psychophysics;996500;experimental_data;NULL;NULL;NULL;NULL;14_11_2020_9_58_2
127;32;4;noStructureExp;bars;7;4115;blue;white,saddlebrown,orange,red,yellow,blue,black;390,570,210,300,120,660,480;150,180,210,240,270,300,330;32;6;6;vrlt89awtbuehfx;true;166.665;390;195;psychophysics;1002628;experimental_data;NULL;NULL;NULL;NULL;14_11_2020_9_58_2
127;32;4;noStructureExp;query;7;3023;blue;white,saddlebrown,orange,red,yellow,blue,black;390,570,210,300,120,660,480;150,180,210,240,270,300,330;54;6;6;vrlt89awtbuehfx;true;166.662;390;195;psychophysics;1006657;experimental_data;NULL;NULL;NULL;NULL;14_11_2020_9_58_2
128;26;4;noStructureExp;bars;6;2890;white;black,pink,purple,saddlebrown,red,white;300,570,390,480,210,120;180,210,240,270,300,330;32;6;6;vrlt89awtbuehfx;true;16.667;390;195;psychophysics;1011556;experimental_data;NULL;NULL;NULL;NULL;14_11_2020_9_58_2
128;26;4;noStructureExp;query;6;1741;white;black,pink,purple,saddlebrown,red,white;300,570,390,480,210,120;180,210,240,270,300,330;54;6;6;vrlt89awtbuehfx;true;166.665;390;195;psychophysics;1014310;experimental_data;NULL;NULL;NULL;NULL;14_11_2020_9_58_2
129;0;4;noStructureExp;bars;1;1077;purple;purple;390;180;32;1;1;vrlt89awtbuehfx;true;166.688;390;195;psychophysics;1017397;experimental_data;NULL;NULL;NULL;NULL;14_11_2020_9_58_2
129;0;4;noStructureExp;query;1;43;purple;purple;390;180;49;1;1;vrlt89awtbuehfx;true;165.785;390;195;psychophysics;1018449;experimental_data;NULL;NULL;NULL;NULL;14_11_2020_9_58_2
130;27;4;noStructureExp;bars;6;2957;green;blue,saddlebrown,orange,black,white,green;480,570,390,120,210,300;180,210,240,270,300,330;32;6;6;vrlt89awtbuehfx;true;166.676;390;195;psychophysics;1023411;experimental_data;NULL;NULL;NULL;NULL;14_11_2020_9_58_2
130;27;4;noStructureExp;query;6;1326;green;blue,saddlebrown,orange,black,white,green;480,570,390,120,210,300;180,210,240,270,300,330;54;6;6;vrlt89awtbuehfx;true;166.642;390;195;psychophysics;1025745;experimental_data;NULL;NULL;NULL;NULL;14_11_2020_9_58_2
131;13;4;noStructureExp;bars;3;2363;blue;blue,black,green;480,300,390;180,210,240;32;1;1;vrlt89awtbuehfx;true;166.669;390;195;psychophysics;1030116;experimental_data;NULL;NULL;NULL;NULL;14_11_2020_9_58_2
131;13;4;noStructureExp;query;3;923;blue;blue,black,green;480,300,390;180,210,240;49;1;1;vrlt89awtbuehfx;true;166.668;390;195;psychophysics;1032051;experimental_data;NULL;NULL;NULL;NULL;14_11_2020_9_58_2
132;12;4;noStructureExp;bars;3;1461;black;red,black,saddlebrown;390,300,480;150,180,210;32;2;2;vrlt89awtbuehfx;true;16.666;390;195;psychophysics;1035524;experimental_data;NULL;NULL;NULL;NULL;14_11_2020_9_58_2
132;12;4;noStructureExp;query;3;797;black;red,black,saddlebrown;390,300,480;150,180,210;50;2;2;vrlt89awtbuehfx;true;166.682;390;195;psychophysics;1037332;experimental_data;NULL;NULL;NULL;NULL;14_11_2020_9_58_2
133;17;4;noStructureExp;bars;4;3288;yellow;blue,pink,yellow,orange;300,210,480,390;180,210,240,270;32;3;3;vrlt89awtbuehfx;true;166.673;390;195;psychophysics;1042629;experimental_data;NULL;NULL;NULL;NULL;14_11_2020_9_58_2
133;17;4;noStructureExp;query;4;973;yellow;blue,pink,yellow,orange;300,210,480,390;180,210,240,270;51;3;3;vrlt89awtbuehfx;true;166.629;390;195;psychophysics;1044626;experimental_data;NULL;NULL;NULL;NULL;14_11_2020_9_58_2
134;9;4;noStructureExp;bars;2;664;yellow;yellow,black;300,39;270,3;32;1;1;vrlt89awtbuehfx;true;166.705;390;195;psychophysics;1047300;experimental_data;NULL;NULL;NULL;NULL;14_11_2020_9_58_2
134;9;4;noStructureExp;query;2;794;yellow;yellow,black;300,39;270,3;49;1;1;vrlt89awtbuehfx;true;166.626;390;195;psychophysics;1049106;experimental_data;NULL;NULL;NULL;NULL;14_11_2020_9_58_2
135;10;4;noStructureExp;bars;3;1675;blue;purple,orange,blue;300,480,390;270,300,330;32;3;3;vrlt89awtbuehfx;true;166.667;390;195;psychophysics;1052789;experimental_data;NULL;NULL;NULL;NULL;14_11_2020_9_58_2
135;10;4;noStructureExp;query;3;812;blue;purple,orange,blue;300,480,390;270,300,330;51;3;3;vrlt89awtbuehfx;true;166.671;390;195;psychophysics;1054612;experimental_data;NULL;NULL;NULL;NULL;14_11_2020_9_58_2
136;1;4;noStructureExp;bars;1;478;black;black;390;210;32;1;1;vrlt89awtbuehfx;true;166.671;390;195;psychophysics;1057110;experimental_data;NULL;NULL;NULL;NULL;14_11_2020_9_58_2
136;1;4;noStructureExp;query;1;235;black;black;390;210;49;1;1;vrlt89awtbuehfx;true;166.661;390;195;psychophysics;1058356;experimental_data;NULL;NULL;NULL;NULL;14_11_2020_9_58_2
137;15;4;noStructureExp;bars;4;3106;red;purple,green,pink,red;210,480,300,390;180,210,240,270;32;4;3;vrlt89awtbuehfx;false;166.663;390;195;psychophysics;1063478;experimental_data;NULL;NULL;NULL;NULL;14_11_2020_9_58_2
137;15;4;noStructureExp;query;4;1162;red;purple,green,pink,red;210,480,300,390;180,210,240,270;51;4;3;vrlt89awtbuehfx;false;166.641;390;195;psychophysics;1065650;experimental_data;NULL;NULL;NULL;NULL;14_11_2020_9_58_2
138;18;4;noStructureExp;bars;4;2996;pink;orange,pink,yellow,blue;390,300,480,210;240,270,300,330;32;2;2;vrlt89awtbuehfx;true;166.655;390;195;psychophysics;1070658;experimental_data;NULL;NULL;NULL;NULL;14_11_2020_9_58_2
138;18;4;noStructureExp;query;4;2437;pink;orange,pink,yellow,blue;390,300,480,210;240,270,300,330;50;2;2;vrlt89awtbuehfx;true;166.671;390;195;psychophysics;1074101;experimental_data;NULL;NULL;NULL;NULL;14_11_2020_9_58_2
139;4;4;noStructureExp;bars;1;818;pink;pink;390;270;32;1;1;vrlt89awtbuehfx;true;166.667;390;195;psychophysics;1076932;experimental_data;NULL;NULL;NULL;NULL;14_11_2020_9_58_2
139;4;4;noStructureExp;query;1;440;pink;pink;390;270;49;1;1;vrlt89awtbuehfx;true;166.692;390;195;psychophysics;1078385;experimental_data;NULL;NULL;NULL;NULL;14_11_2020_9_58_2
140;31;4;noStructureExp;bars;7;5639;yellow;purple,white,yellow,green,red,blue,saddlebrown;480,390,300,210,570,120,660;150,180,210,240,270,300,330;32;3;3;vrlt89awtbuehfx;true;166.658;390;195;psychophysics;1086037;experimental_data;NULL;NULL;NULL;NULL;14_11_2020_9_58_2
140;31;4;noStructureExp;query;7;1617;yellow;purple,white,yellow,green,red,blue,saddlebrown;480,390,300,210,570,120,660;150,180,210,240,270,300,330;51;3;3;vrlt89awtbuehfx;true;16.668;390;195;psychophysics;1088663;experimental_data;NULL;NULL;NULL;NULL;14_11_2020_9_58_2
NULL;NULL;0;NULL;end_of_block;NULL;7548;NULL;NULL;NULL;NULL;32;NULL;NULL;vrlt89awtbuehfx;NULL;NULL;NULL;NULL;html-keyboard-response;1097218;experimental_data;1097231;182.872;0.942857;NULL;14_11_2020_9_58_2
141;0;5;sortStructureCont;bars;1;510;orange;orange;390;180;32;1;1;vrlt89awtbuehfx;true;166.666;390;195;psychophysics;1098739;experimental_data;NULL;NULL;NULL;NULL;14_11_2020_9_58_2
141;0;5;sortStructureCont;query;1;240;orange;orange;390;180;49;1;1;vrlt89awtbuehfx;true;166.658;390;195;psychophysics;1099988;experimental_data;NULL;NULL;NULL;NULL;14_11_2020_9_58_2
142;21;5;sortStructureCont;bars;5;4175;pink;red,orange,blue,purple,pink;210,300,390,480,570;210,240,270,300,330;32;5;5;vrlt89awtbuehfx;true;166.662;390;195;psychophysics;1106179;experimental_data;NULL;NULL;NULL;NULL;14_11_2020_9_58_2
142;21;5;sortStructureCont;query;5;1074;pink;red,orange,blue,purple,pink;210,300,390,480,570;210,240,270,300,330;53;5;5;vrlt89awtbuehfx;true;166.698;390;195;psychophysics;1108260;experimental_data;NULL;NULL;NULL;NULL;14_11_2020_9_58_2
143;13;5;sortStructureCont;bars;3;1841;orange;orange,blue,purple;300,390,480;180,210,240;32;1;2;vrlt89awtbuehfx;false;166.667;390;195;psychophysics;1112116;experimental_data;NULL;NULL;NULL;NULL;14_11_2020_9_58_2
143;13;5;sortStructureCont;query;3;760;orange;orange,blue,purple;300,390,480;180,210,240;50;1;2;vrlt89awtbuehfx;false;166.639;390;195;psychophysics;1113889;experimental_data;NULL;NULL;NULL;NULL;14_11_2020_9_58_2
144;19;5;sortStructureCont;bars;4;1928;blue;green,orange,blue,purple;210,300,390,480;210,240,270,300;32;3;3;vrlt89awtbuehfx;true;166.677;390;195;psychophysics;1117829;experimental_data;NULL;NULL;NULL;NULL;14_11_2020_9_58_2
144;19;5;sortStructureCont;query;4;1126;blue;green,orange,blue,purple;210,300,390,480;210,240,270,300;51;3;3;vrlt89awtbuehfx;true;166.646;390;195;psychophysics;1119969;experimental_data;NULL;NULL;NULL;NULL;14_11_2020_9_58_2
145;18;5;sortStructureCont;bars;4;2744;purple;orange,blue,purple,yellow;210,300,390,480;240,270,300,330;32;3;3;vrlt89awtbuehfx;true;166.659;390;195;psychophysics;1124722;experimental_data;NULL;NULL;NULL;NULL;14_11_2020_9_58_2
145;18;5;sortStructureCont;query;4;1053;purple;orange,blue,purple,yellow;210,300,390,480;240,270,300,330;51;3;3;vrlt89awtbuehfx;true;166.668;390;195;psychophysics;1126788;experimental_data;NULL;NULL;NULL;NULL;14_11_2020_9_58_2
146;17;5;sortStructureCont;bars;4;2949;orange;green,orange,blue,purple;210,300,390,480;180,210,240,270;32;2;2;vrlt89awtbuehfx;true;166.664;390;195;psychophysics;1131749;experimental_data;NULL;NULL;NULL;NULL;14_11_2020_9_58_2
146;17;5;sortStructureCont;query;4;839;orange;green,orange,blue,purple;210,300,390,480;180,210,240,270;50;2;2;vrlt89awtbuehfx;true;16.664;390;195;psychophysics;1133601;experimental_data;NULL;NULL;NULL;NULL;14_11_2020_9_58_2
147;24;5;sortStructureCont;bars;5;2787;yellow;yellow,orange,blue,purple,red;210,300,390,480,570;150,180,210,240,270;32;1;1;vrlt89awtbuehfx;true;166.656;390;195;psychophysics;1138401;experimental_data;NULL;NULL;NULL;NULL;14_11_2020_9_58_2
147;24;5;sortStructureCont;query;5;573;yellow;yellow,orange,blue,purple,red;210,300,390,480,570;150,180,210,240,270;49;1;1;vrlt89awtbuehfx;true;166.673;390;195;psychophysics;1139988;experimental_data;NULL;NULL;NULL;NULL;14_11_2020_9_58_2
148;15;5;sortStructureCont;bars;4;1777;orange;orange,blue,purple,saddlebrown;210,300,390,480;180,210,240,270;32;1;1;vrlt89awtbuehfx;true;166.669;390;195;psychophysics;1143780;experimental_data;NULL;NULL;NULL;NULL;14_11_2020_9_58_2
148;15;5;sortStructureCont;query;4;827;orange;orange,blue,purple,saddlebrown;210,300,390,480;180,210,240,270;49;1;1;vrlt89awtbuehfx;true;166.674;390;195;psychophysics;1145620;experimental_data;NULL;NULL;NULL;NULL;14_11_2020_9_58_2
149;31;5;sortStructureCont;bars;7;4789;yellow;yellow,saddlebrown,orange,blue,purple,black,white;120,210,300,390,480,570,660;150,180,210,240,270,300,330;32;1;1;vrlt89awtbuehfx;true;16.666;390;195;psychophysics;1152435;experimental_data;NULL;NULL;NULL;NULL;14_11_2020_9_58_2
149;31;5;sortStructureCont;query;7;528;yellow;yellow,saddlebrown,orange,blue,purple,black,white;120,210,300,390,480,570,660;150,180,210,240,270,300,330;49;1;1;vrlt89awtbuehfx;true;166.725;390;195;psychophysics;1153972;experimental_data;NULL;NULL;NULL;NULL;14_11_2020_9_58_2
150;7;5;sortStructureCont;bars;2;1646;orange;orange,blue;300,39;150,18;32;1;1;vrlt89awtbuehfx;true;166.656;390;195;psychophysics;1157633;experimental_data;NULL;NULL;NULL;NULL;14_11_2020_9_58_2
150;7;5;sortStructureCont;query;2;876;orange;orange,blue;300,39;150,18;49;1;1;vrlt89awtbuehfx;true;166.657;390;195;psychophysics;1159524;experimental_data;NULL;NULL;NULL;NULL;14_11_2020_9_58_2
151;10;5;sortStructureCont;bars;3;1106;purple;orange,blue,purple;300,390,480;270,300,330;32;3;3;vrlt89awtbuehfx;true;166.664;390;195;psychophysics;1162643;experimental_data;NULL;NULL;NULL;NULL;14_11_2020_9_58_2
151;10;5;sortStructureCont;query;3;1023;purple;orange,blue,purple;300,390,480;270,300,330;51;3;3;vrlt89awtbuehfx;true;166.658;390;195;psychophysics;1164677;experimental_data;NULL;NULL;NULL;NULL;14_11_2020_9_58_2
152;27;5;sortStructureCont;bars;6;5149;blue;pink,saddlebrown,green,orange,blue,purple;120,210,300,390,480,570;180,210,240,270,300,330;32;5;5;vrlt89awtbuehfx;true;166.665;390;195;psychophysics;1171843;experimental_data;NULL;NULL;NULL;NULL;14_11_2020_9_58_2
152;27;5;sortStructureCont;query;6;1790;blue;pink,saddlebrown,green,orange,blue,purple;120,210,300,390,480,570;180,210,240,270,300,330;53;5;5;vrlt89awtbuehfx;true;166.665;390;195;psychophysics;1174643;experimental_data;NULL;NULL;NULL;NULL;14_11_2020_9_58_2
153;6;5;sortStructureCont;bars;2;849;blue;orange,blue;300,39;270,3;32;2;2;vrlt89awtbuehfx;true;166.656;390;195;psychophysics;1177505;experimental_data;NULL;NULL;NULL;NULL;14_11_2020_9_58_2
153;6;5;sortStructureCont;query;2;736;blue;orange,blue;300,39;270,3;50;2;2;vrlt89awtbuehfx;true;166.703;390;195;psychophysics;1179251;experimental_data;NULL;NULL;NULL;NULL;14_11_2020_9_58_2
154;4;5;sortStructureCont;bars;1;604;orange;orange;390;270;32;1;1;vrlt89awtbuehfx;true;166.671;390;195;psychophysics;1181873;experimental_data;NULL;NULL;NULL;NULL;14_11_2020_9_58_2
154;4;5;sortStructureCont;query;1;272;orange;orange;390;270;49;1;1;vrlt89awtbuehfx;true;166.596;390;195;psychophysics;1183153;experimental_data;NULL;NULL;NULL;NULL;14_11_2020_9_58_2
155;20;5;sortStructureCont;bars;5;2804;pink;orange,blue,purple,red,pink;210,300,390,480,570;150,180,210,240,270;32;5;5;vrlt89awtbuehfx;true;166.677;390;195;psychophysics;1187974;experimental_data;NULL;NULL;NULL;NULL;14_11_2020_9_58_2
155;20;5;sortStructureCont;query;5;1228;pink;orange,blue,purple,red,pink;210,300,390,480,570;150,180,210,240,270;53;5;5;vrlt89awtbuehfx;true;166.686;390;195;psychophysics;1190211;experimental_data;NULL;NULL;NULL;NULL;14_11_2020_9_58_2
156;32;5;sortStructureCont;bars;7;4549;white;orange,blue,purple,yellow,pink,white,saddlebrown;120,210,300,390,480,570,660;150,180,210,240,270,300,330;32;6;6;vrlt89awtbuehfx;true;166.671;390;195;psychophysics;1196773;experimental_data;NULL;NULL;NULL;NULL;14_11_2020_9_58_2
156;32;5;sortStructureCont;query;7;3513;white;orange,blue,purple,yellow,pink,white,saddlebrown;120,210,300,390,480,570,660;150,180,210,240,270,300,330;54;6;6;vrlt89awtbuehfx;true;166.651;390;195;psychophysics;1201297;experimental_data;NULL;NULL;NULL;NULL;14_11_2020_9_58_2
157;33;5;sortStructureCont;bars;7;6503;yellow;red,pink,green,yellow,orange,blue,purple;120,210,300,390,480,570,660;150,180,210,240,270,300,330;32;4;4;vrlt89awtbuehfx;true;166.662;390;195;psychophysics;1209812;experimental_data;NULL;NULL;NULL;NULL;14_11_2020_9_58_2
157;33;5;sortStructureCont;query;7;1500;yellow;red,pink,green,yellow,orange,blue,purple;120,210,300,390,480,570,660;150,180,210,240,270,300,330;52;4;4;vrlt89awtbuehfx;true;166.661;390;195;psychophysics;1212324;experimental_data;NULL;NULL;NULL;NULL;14_11_2020_9_58_2
158;29;5;sortStructureCont;bars;6;3246;purple;red,white,orange,blue,purple,saddlebrown;120,210,300,390,480,570;180,210,240,270,300,330;32;5;5;vrlt89awtbuehfx;true;166.661;390;195;psychophysics;1217588;experimental_data;NULL;NULL;NULL;NULL;14_11_2020_9_58_2
158;29;5;sortStructureCont;query;6;3196;purple;red,white,orange,blue,purple,saddlebrown;120,210,300,390,480,570;180,210,240,270,300,330;53;5;5;vrlt89awtbuehfx;true;166.662;390;195;psychophysics;1221792;experimental_data;NULL;NULL;NULL;NULL;14_11_2020_9_58_2
159;1;5;sortStructureCont;bars;1;606;orange;orange;390;210;32;1;1;vrlt89awtbuehfx;true;166.696;390;195;psychophysics;1224405;experimental_data;NULL;NULL;NULL;NULL;14_11_2020_9_58_2
159;1;5;sortStructureCont;query;1;60;orange;orange;390;210;49;1;1;vrlt89awtbuehfx;true;16.64;390;195;psychophysics;1225475;experimental_data;NULL;NULL;NULL;NULL;14_11_2020_9_58_2
160;11;5;sortStructureCont;bars;3;1166;blue;orange,blue,purple;300,390,480;270,300,330;32;2;2;vrlt89awtbuehfx;true;166.652;390;195;psychophysics;1228659;experimental_data;NULL;NULL;NULL;NULL;14_11_2020_9_58_2
160;11;5;sortStructureCont;query;3;1146;blue;orange,blue,purple;300,390,480;270,300,330;50;2;2;vrlt89awtbuehfx;true;166.662;390;195;psychophysics;1230822;experimental_data;NULL;NULL;NULL;NULL;14_11_2020_9_58_2
161;26;5;sortStructureCont;bars;6;1529;black;orange,blue,purple,black,yellow,white;120,210,300,390,480,570;180,210,240,270,300,330;32;4;4;vrlt89awtbuehfx;true;16.667;390;195;psychophysics;1234371;experimental_data;NULL;NULL;NULL;NULL;14_11_2020_9_58_2
161;26;5;sortStructureCont;query;6;1172;black;orange,blue,purple,black,yellow,white;120,210,300,390,480,570;180,210,240,270,300,330;52;4;4;vrlt89awtbuehfx;true;166.643;390;195;psychophysics;1236561;experimental_data;NULL;NULL;NULL;NULL;14_11_2020_9_58_2
162;12;5;sortStructureCont;bars;3;620;purple;orange,blue,purple;300,390,480;150,180,210;32;3;3;vrlt89awtbuehfx;true;166.715;390;195;psychophysics;1239190;experimental_data;NULL;NULL;NULL;NULL;14_11_2020_9_58_2
162;12;5;sortStructureCont;query;3;858;purple;orange,blue,purple;300,390,480;150,180,210;51;3;3;vrlt89awtbuehfx;true;166.706;390;195;psychophysics;1241058;experimental_data;NULL;NULL;NULL;NULL;14_11_2020_9_58_2
163;2;5;sortStructureCont;bars;1;613;orange;orange;390;150;32;1;1;vrlt89awtbuehfx;true;166.678;390;195;psychophysics;1243683;experimental_data;NULL;NULL;NULL;NULL;14_11_2020_9_58_2
163;2;5;sortStructureCont;query;1;142;orange;orange;390;150;49;1;1;vrlt89awtbuehfx;true;16.698;390;195;psychophysics;1244835;experimental_data;NULL;NULL;NULL;NULL;14_11_2020_9_58_2
164;28;5;sortStructureCont;bars;6;3680;red;red,saddlebrown,yellow,orange,blue,purple;120,210,300,390,480,570;180,210,240,270,300,330;32;1;4;vrlt89awtbuehfx;false;166.656;390;195;psychophysics;1250529;experimental_data;NULL;NULL;NULL;NULL;14_11_2020_9_58_2
164;28;5;sortStructureCont;query;6;5134;red;red,saddlebrown,yellow,orange,blue,purple;120,210,300,390,480,570;180,210,240,270,300,330;52;1;4;vrlt89awtbuehfx;false;166.663;390;195;psychophysics;1256675;experimental_data;NULL;NULL;NULL;NULL;14_11_2020_9_58_2
165;9;5;sortStructureCont;bars;2;787;orange;orange,blue;300,39;270,3;32;1;1;vrlt89awtbuehfx;true;166.662;390;195;psychophysics;1259472;experimental_data;NULL;NULL;NULL;NULL;14_11_2020_9_58_2
165;9;5;sortStructureCont;query;2;900;orange;orange,blue;300,39;270,3;49;1;1;vrlt89awtbuehfx;true;166.693;390;195;psychophysics;1261379;experimental_data;NULL;NULL;NULL;NULL;14_11_2020_9_58_2
166;30;5;sortStructureCont;bars;7;3536;green;green,orange,blue,purple,pink,black,yellow;120,210,300,390,480,570,660;150,180,210,240,270,300,330;32;1;1;vrlt89awtbuehfx;true;16.667;390;195;psychophysics;1266928;experimental_data;NULL;NULL;NULL;NULL;14_11_2020_9_58_2
166;30;5;sortStructureCont;query;7;731;green;green,orange,blue,purple,pink,black,yellow;120,210,300,390,480,570,660;150,180,210,240,270,300,330;49;1;1;vrlt89awtbuehfx;true;16.664;390;195;psychophysics;1268674;experimental_data;NULL;NULL;NULL;NULL;14_11_2020_9_58_2
167;14;5;sortStructureCont;bars;3;814;blue;orange,blue,purple;300,390,480;210,240,270;32;2;2;vrlt89awtbuehfx;true;166.665;390;195;psychophysics;1271509;experimental_data;NULL;NULL;NULL;NULL;14_11_2020_9_58_2
167;14;5;sortStructureCont;query;3;646;blue;orange,blue,purple;300,390,480;210,240,270;50;2;2;vrlt89awtbuehfx;true;16.667;390;195;psychophysics;1273170;experimental_data;NULL;NULL;NULL;NULL;14_11_2020_9_58_2
168;22;5;sortStructureCont;bars;5;2310;orange;orange,blue,purple,yellow,black;210,300,390,480,570;150,180,210,240,270;32;1;1;vrlt89awtbuehfx;true;166.665;390;195;psychophysics;1277506;experimental_data;NULL;NULL;NULL;NULL;14_11_2020_9_58_2
168;22;5;sortStructureCont;query;5;1071;orange;orange,blue,purple,yellow,black;210,300,390,480,570;150,180,210,240,270;49;1;1;vrlt89awtbuehfx;true;166.655;390;195;psychophysics;1279588;experimental_data;NULL;NULL;NULL;NULL;14_11_2020_9_58_2
169;16;5;sortStructureCont;bars;4;861;orange;orange,blue,purple,red;210,300,390,480;180,210,240,270;32;1;1;vrlt89awtbuehfx;true;166.645;390;195;psychophysics;1282470;experimental_data;NULL;NULL;NULL;NULL;14_11_2020_9_58_2
169;16;5;sortStructureCont;query;4;730;orange;orange,blue,purple,red;210,300,390,480;180,210,240,270;49;1;1;vrlt89awtbuehfx;true;166.711;390;195;psychophysics;1284209;experimental_data;NULL;NULL;NULL;NULL;14_11_2020_9_58_2
170;3;5;sortStructureCont;bars;1;1043;orange;orange;390;180;32;1;1;vrlt89awtbuehfx;true;166.665;390;195;psychophysics;1287267;experimental_data;NULL;NULL;NULL;NULL;14_11_2020_9_58_2
170;3;5;sortStructureCont;query;1;253;orange;orange;390;180;49;1;1;vrlt89awtbuehfx;true;166.706;390;195;psychophysics;1288531;experimental_data;NULL;NULL;NULL;NULL;14_11_2020_9_58_2
171;5;5;sortStructureCont;bars;2;402;orange;orange,blue;300,39;210,24;32;1;1;vrlt89awtbuehfx;true;166.647;390;195;psychophysics;1290945;experimental_data;NULL;NULL;NULL;NULL;14_11_2020_9_58_2
171;5;5;sortStructureCont;query;2;419;orange;orange,blue;300,39;210,24;49;1;1;vrlt89awtbuehfx;true;166.676;390;195;psychophysics;1292369;experimental_data;NULL;NULL;NULL;NULL;14_11_2020_9_58_2
172;25;5;sortStructureCont;bars;6;2215;purple;green,saddlebrown,orange,blue,purple,pink;120,210,300,390,480,570;150,180,210,240,270,300;32;5;5;vrlt89awtbuehfx;true;16.665;390;195;psychophysics;1296593;experimental_data;NULL;NULL;NULL;NULL;14_11_2020_9_58_2
172;25;5;sortStructureCont;query;6;3050;purple;green,saddlebrown,orange,blue,purple,pink;120,210,300,390,480,570;150,180,210,240,270,300;53;5;5;vrlt89awtbuehfx;true;166.656;390;195;psychophysics;1300657;experimental_data;NULL;NULL;NULL;NULL;14_11_2020_9_58_2
173;8;5;sortStructureCont;bars;2;459;blue;orange,blue;300,39;210,24;32;2;2;vrlt89awtbuehfx;true;166.691;390;195;psychophysics;1303123;experimental_data;NULL;NULL;NULL;NULL;14_11_2020_9_58_2
173;8;5;sortStructureCont;query;2;458;blue;orange,blue;300,39;210,24;50;2;2;vrlt89awtbuehfx;true;166.624;390;195;psychophysics;1304612;experimental_data;NULL;NULL;NULL;NULL;14_11_2020_9_58_2
174;34;5;sortStructureCont;bars;7;2352;saddlebrown;orange,blue,purple,red,green,white,saddlebrown;120,210,300,390,480,570,660;150,180,210,240,270,300,330;32;7;7;vrlt89awtbuehfx;true;166.649;390;195;psychophysics;1308977;experimental_data;NULL;NULL;NULL;NULL;14_11_2020_9_58_2
174;34;5;sortStructureCont;query;7;2604;saddlebrown;orange,blue,purple,red,green,white,saddlebrown;120,210,300,390,480,570,660;150,180,210,240,270,300,330;55;7;7;vrlt89awtbuehfx;true;166.661;390;195;psychophysics;1312595;experimental_data;NULL;NULL;NULL;NULL;14_11_2020_9_58_2
175;23;5;sortStructureCont;bars;5;2914;orange;yellow,orange,blue,purple,pink;210,300,390,480,570;180,210,240,270,300;32;2;2;vrlt89awtbuehfx;true;166.671;390;195;psychophysics;1317524;experimental_data;NULL;NULL;NULL;NULL;14_11_2020_9_58_2
175;23;5;sortStructureCont;query;5;1727;orange;yellow,orange,blue,purple,pink;210,300,390,480,570;180,210,240,270,300;50;2;2;vrlt89awtbuehfx;true;16.666;390;195;psychophysics;1320260;experimental_data;NULL;NULL;NULL;NULL;14_11_2020_9_58_2
NULL;NULL;0;NULL;end_of_block;NULL;4313;NULL;NULL;NULL;NULL;32;NULL;NULL;vrlt89awtbuehfx;NULL;NULL;NULL;NULL;html-keyboard-response;1325588;experimental_data;1325603;220.934;0.942857;NULL;14_11_2020_9_58_2
176;3;6;sortStructureExp;bars;1;606;red;red;390;180;32;1;1;vrlt89awtbuehfx;true;166.649;390;195;psychophysics;1327201;experimental_data;NULL;NULL;NULL;NULL;14_11_2020_9_58_2
176;3;6;sortStructureExp;query;1;250;red;red;390;180;49;1;1;vrlt89awtbuehfx;true;16.672;390;195;psychophysics;1328483;experimental_data;NULL;NULL;NULL;NULL;14_11_2020_9_58_2
177;2;6;sortStructureExp;bars;1;476;red;red;390;150;32;1;1;vrlt89awtbuehfx;true;166.668;390;195;psychophysics;1330980;experimental_data;NULL;NULL;NULL;NULL;14_11_2020_9_58_2
177;2;6;sortStructureExp;query;1;112;red;red;390;150;49;1;1;vrlt89awtbuehfx;true;166.254;390;195;psychophysics;1332099;experimental_data;NULL;NULL;NULL;NULL;14_11_2020_9_58_2
178;26;6;sortStructureExp;bars;6;5648;green;white,pink,red,green,blue,yellow;300,570,390,480,210,120;180,210,240,270,300,330;32;4;4;vrlt89awtbuehfx;true;166.667;390;195;psychophysics;1339762;experimental_data;NULL;NULL;NULL;NULL;14_11_2020_9_58_2
178;26;6;sortStructureExp;query;6;3003;green;white,pink,red,green,blue,yellow;300,570,390,480,210,120;180,210,240,270,300,330;52;4;4;vrlt89awtbuehfx;true;166.653;390;195;psychophysics;1343776;experimental_data;NULL;NULL;NULL;NULL;14_11_2020_9_58_2
179;13;6;sortStructureExp;bars;3;501;red;red,green,blue;480,300,390;180,210,240;32;1;1;vrlt89awtbuehfx;true;166.722;390;195;psychophysics;1346290;experimental_data;NULL;NULL;NULL;NULL;14_11_2020_9_58_2
179;13;6;sortStructureExp;query;3;800;red;red,green,blue;480,300,390;180,210,240;49;1;1;vrlt89awtbuehfx;true;166.674;390;195;psychophysics;1348099;experimental_data;NULL;NULL;NULL;NULL;14_11_2020_9_58_2
180;19;6;sortStructureExp;bars;4;1696;green;purple,red,green,blue;300,390,480,210;210,240,270,300;32;3;3;vrlt89awtbuehfx;true;166.664;390;195;psychophysics;1351811;experimental_data;NULL;NULL;NULL;NULL;14_11_2020_9_58_2
180;19;6;sortStructureExp;query;4;2251;green;purple,red,green,blue;300,390,480,210;210,240,270,300;51;3;3;vrlt89awtbuehfx;true;166.668;390;195;psychophysics;1355076;experimental_data;NULL;NULL;NULL;NULL;14_11_2020_9_58_2
181;29;6;sortStructureExp;bars;6;2981;black;pink,red,green,blue,black,saddlebrown;210,120,390,480,570,300;180,210,240,270,300,330;32;5;5;vrlt89awtbuehfx;true;16.666;390;195;psychophysics;1360069;experimental_data;NULL;NULL;NULL;NULL;14_11_2020_9_58_2
181;29;6;sortStructureExp;query;6;1706;black;pink,red,green,blue,black,saddlebrown;210,120,390,480,570,300;180,210,240,270,300,330;53;5;5;vrlt89awtbuehfx;true;16.665;390;195;psychophysics;1362784;experimental_data;NULL;NULL;NULL;NULL;14_11_2020_9_58_2
182;6;6;sortStructureExp;bars;2;697;green;red,green;390,3;270,3;32;2;2;vrlt89awtbuehfx;true;16.667;390;195;psychophysics;1365491;experimental_data;NULL;NULL;NULL;NULL;14_11_2020_9_58_2
182;6;6;sortStructureExp;query;2;697;green;red,green;390,3;270,3;50;2;2;vrlt89awtbuehfx;true;166.661;390;195;psychophysics;1367203;experimental_data;NULL;NULL;NULL;NULL;14_11_2020_9_58_2
183;1;6;sortStructureExp;bars;1;575;red;red;390;210;32;1;1;vrlt89awtbuehfx;true;166.654;390;195;psychophysics;1369792;experimental_data;NULL;NULL;NULL;NULL;14_11_2020_9_58_2
183;1;6;sortStructureExp;query;1;195;red;red;390;210;49;1;1;vrlt89awtbuehfx;true;166.667;390;195;psychophysics;1371010;experimental_data;NULL;NULL;NULL;NULL;14_11_2020_9_58_2
184;12;6;sortStructureExp;bars;3;1951;blue;red,green,blue;390,300,480;150,180,210;32;3;3;vrlt89awtbuehfx;true;166.652;390;195;psychophysics;1374976;experimental_data;NULL;NULL;NULL;NULL;14_11_2020_9_58_2
184;12;6;sortStructureExp;query;3;1056;blue;red,green,blue;390,300,480;150,180,210;51;3;3;vrlt89awtbuehfx;true;16.666;390;195;psychophysics;1377043;experimental_data;NULL;NULL;NULL;NULL;14_11_2020_9_58_2
185;34;6;sortStructureExp;bars;7;6346;black;white,red,green,blue,orange,saddlebrown,black;390,660,480,120,570,210,300;150,180,210,240,270,300,330;32;7;7;vrlt89awtbuehfx;true;166.668;390;195;psychophysics;1385410;experimental_data;NULL;NULL;NULL;NULL;14_11_2020_9_58_2
185;34;6;sortStructureExp;query;7;1803;black;white,red,green,blue,orange,saddlebrown,black;390,660,480,120,570,210,300;150,180,210,240,270,300,330;55;7;7;vrlt89awtbuehfx;true;166.661;390;195;psychophysics;1388227;experimental_data;NULL;NULL;NULL;NULL;14_11_2020_9_58_2
186;23;6;sortStructureExp;bars;5;2205;green;red,green,blue,black,purple;480,390,570,210,300;180,210,240,270,300;32;2;2;vrlt89awtbuehfx;true;166.659;390;195;psychophysics;1392451;experimental_data;NULL;NULL;NULL;NULL;14_11_2020_9_58_2
186;23;6;sortStructureExp;query;5;1144;green;red,green,blue,black,purple;480,390,570,210,300;180,210,240,270,300;50;2;2;vrlt89awtbuehfx;true;166.689;390;195;psychophysics;1394608;experimental_data;NULL;NULL;NULL;NULL;14_11_2020_9_58_2
187;9;6;sortStructureExp;bars;2;850;red;red,green;300,39;270,3;32;1;1;vrlt89awtbuehfx;true;166.619;390;195;psychophysics;1397472;experimental_data;NULL;NULL;NULL;NULL;14_11_2020_9_58_2
187;9;6;sortStructureExp;query;2;661;red;red,green;300,39;270,3;49;1;1;vrlt89awtbuehfx;true;166.695;390;195;psychophysics;1399139;experimental_data;NULL;NULL;NULL;NULL;14_11_2020_9_58_2
188;21;6;sortStructureExp;bars;5;3598;blue;white,yellow,red,green,blue;480,390,210,570,300;210,240,270,300,330;32;5;5;vrlt89awtbuehfx;true;166.673;390;195;psychophysics;1404754;experimental_data;NULL;NULL;NULL;NULL;14_11_2020_9_58_2
188;21;6;sortStructureExp;query;5;1984;blue;white,yellow,red,green,blue;480,390,210,570,300;210,240,270,300,330;53;5;5;vrlt89awtbuehfx;true;166.676;390;195;psychophysics;1407747;experimental_data;NULL;NULL;NULL;NULL;14_11_2020_9_58_2
189;31;6;sortStructureExp;bars;7;4545;purple;purple,pink,red,green,blue,white,saddlebrown;480,390,300,210,570,120,660;150,180,210,240,270,300,330;32;1;1;vrlt89awtbuehfx;true;166.662;390;195;psychophysics;1414307;experimental_data;NULL;NULL;NULL;NULL;14_11_2020_9_58_2
189;31;6;sortStructureExp;query;7;1290;purple;purple,pink,red,green,blue,white,saddlebrown;480,390,300,210,570,120,660;150,180,210,240,270,300,330;49;1;1;vrlt89awtbuehfx;true;16.666;390;195;psychophysics;1416610;experimental_data;NULL;NULL;NULL;NULL;14_11_2020_9_58_2
190;24;6;sortStructureExp;bars;5;2801;yellow;yellow,white,red,green,blue;210,570,300,480,390;150,180,210,240,270;32;1;2;vrlt89awtbuehfx;false;166.651;390;195;psychophysics;1421426;experimental_data;NULL;NULL;NULL;NULL;14_11_2020_9_58_2
190;24;6;sortStructureExp;query;5;970;yellow;yellow,white,red,green,blue;210,570,300,480,390;150,180,210,240,270;50;1;2;vrlt89awtbuehfx;false;166.643;390;195;psychophysics;1423408;experimental_data;NULL;NULL;NULL;NULL;14_11_2020_9_58_2
191;10;6;sortStructureExp;bars;3;1462;blue;red,green,blue;300,480,390;270,300,330;32;3;3;vrlt89awtbuehfx;true;166.654;390;195;psychophysics;1426883;experimental_data;NULL;NULL;NULL;NULL;14_11_2020_9_58_2
191;10;6;sortStructureExp;query;3;1245;blue;red,green,blue;300,480,390;270,300,330;51;3;3;vrlt89awtbuehfx;true;166.666;390;195;psychophysics;1429138;experimental_data;NULL;NULL;NULL;NULL;14_11_2020_9_58_2
192;30;6;sortStructureExp;bars;7;4321;purple;purple,white,black,red,green,blue,pink;660,570,480,390,210,120,300;150,180,210,240,270,300,330;32;1;1;vrlt89awtbuehfx;true;166.663;390;195;psychophysics;1435474;experimental_data;NULL;NULL;NULL;NULL;14_11_2020_9_58_2
192;30;6;sortStructureExp;query;7;666;purple;purple,white,black,red,green,blue,pink;660,570,480,390,210,120,300;150,180,210,240,270,300,330;49;1;1;vrlt89awtbuehfx;true;166.675;390;195;psychophysics;1437155;experimental_data;NULL;NULL;NULL;NULL;14_11_2020_9_58_2
193;20;6;sortStructureExp;bars;5;2931;purple;red,green,blue,white,purple;300,390,570,210,480;150,180,210,240,270;32;5;5;vrlt89awtbuehfx;true;166.657;390;195;psychophysics;1442096;experimental_data;NULL;NULL;NULL;NULL;14_11_2020_9_58_2
193;20;6;sortStructureExp;query;5;1566;purple;red,green,blue,white,purple;300,390,570,210,480;150,180,210,240,270;53;5;5;vrlt89awtbuehfx;true;16.665;390;195;psychophysics;1444672;experimental_data;NULL;NULL;NULL;NULL;14_11_2020_9_58_2
194;7;6;sortStructureExp;bars;2;837;red;red,green;390,3;150,18;32;1;1;vrlt89awtbuehfx;true;166.655;390;195;psychophysics;1447523;experimental_data;NULL;NULL;NULL;NULL;14_11_2020_9_58_2
194;7;6;sortStructureExp;query;2;530;red;red,green;390,3;150,18;49;1;1;vrlt89awtbuehfx;true;166.728;390;195;psychophysics;1449058;experimental_data;NULL;NULL;NULL;NULL;14_11_2020_9_58_2
195;4;6;sortStructureExp;bars;1;515;red;red;390;270;32;1;1;vrlt89awtbuehfx;true;166.672;390;195;psychophysics;1451588;experimental_data;NULL;NULL;NULL;NULL;14_11_2020_9_58_2
195;4;6;sortStructureExp;query;1;72;red;red;390;270;49;1;1;vrlt89awtbuehfx;true;166.895;390;195;psychophysics;1452674;experimental_data;NULL;NULL;NULL;NULL;14_11_2020_9_58_2
196;18;6;sortStructureExp;bars;4;1186;blue;red,green,blue,saddlebrown;390,300,480,210;240,270,300,330;32;3;3;vrlt89awtbuehfx;true;166.663;390;195;psychophysics;1455872;experimental_data;NULL;NULL;NULL;NULL;14_11_2020_9_58_2
196;18;6;sortStructureExp;query;4;1005;blue;red,green,blue,saddlebrown;390,300,480,210;240,270,300,330;51;3;3;vrlt89awtbuehfx;true;166.643;390;195;psychophysics;1457888;experimental_data;NULL;NULL;NULL;NULL;14_11_2020_9_58_2
197;27;6;sortStructureExp;bars;6;2692;pink;yellow,red,green,blue,pink,orange;480,570,390,120,210,300;180,210,240,270,300,330;32;5;5;vrlt89awtbuehfx;true;166.666;390;195;psychophysics;1462594;experimental_data;NULL;NULL;NULL;NULL;14_11_2020_9_58_2
197;27;6;sortStructureExp;query;6;1343;pink;yellow,red,green,blue,pink,orange;480,570,390,120,210,300;180,210,240,270,300,330;53;5;5;vrlt89awtbuehfx;true;16.664;390;195;psychophysics;1464944;experimental_data;NULL;NULL;NULL;NULL;14_11_2020_9_58_2
198;14;6;sortStructureExp;bars;3;615;green;red,green,blue;390,300,480;210,240,270;32;2;2;vrlt89awtbuehfx;true;16.662;390;195;psychophysics;1467584;experimental_data;NULL;NULL;NULL;NULL;14_11_2020_9_58_2
198;14;6;sortStructureExp;query;3;1202;green;red,green,blue;390,300,480;210,240,270;50;2;2;vrlt89awtbuehfx;true;166.677;390;195;psychophysics;1469792;experimental_data;NULL;NULL;NULL;NULL;14_11_2020_9_58_2
199;15;6;sortStructureExp;bars;4;1670;red;red,green,blue,white;210,480,300,390;180,210,240,270;32;1;1;vrlt89awtbuehfx;true;166.664;390;195;psychophysics;1473506;experimental_data;NULL;NULL;NULL;NULL;14_11_2020_9_58_2
199;15;6;sortStructureExp;query;4;876;red;red,green,blue,white;210,480,300,390;180,210,240,270;49;1;1;vrlt89awtbuehfx;true;166.664;390;195;psychophysics;1475396;experimental_data;NULL;NULL;NULL;NULL;14_11_2020_9_58_2
200;28;6;sortStructureExp;bars;6;2848;white;white,yellow,saddlebrown,red,green,blue;390,570,480,300,120,210;180,210,240,270,300,330;32;1;1;vrlt89awtbuehfx;true;166.669;390;195;psychophysics;1480256;experimental_data;NULL;NULL;NULL;NULL;14_11_2020_9_58_2
200;28;6;sortStructureExp;query;6;966;white;white,yellow,saddlebrown,red,green,blue;390,570,480,300,120,210;180,210,240,270,300,330;49;1;1;vrlt89awtbuehfx;true;166.711;390;195;psychophysics;1482227;experimental_data;NULL;NULL;NULL;NULL;14_11_2020_9_58_2
201;22;6;sortStructureExp;bars;5;3710;yellow;yellow,black,red,green,blue;390,300,210,570,480;150,180,210,240,270;32;1;1;vrlt89awtbuehfx;true;16.666;390;195;psychophysics;1487952;experimental_data;NULL;NULL;NULL;NULL;14_11_2020_9_58_2
201;22;6;sortStructureExp;query;5;451;yellow;yellow,black,red,green,blue;390,300,210,570,480;150,180,210,240,270;49;1;1;vrlt89awtbuehfx;true;166.652;390;195;psychophysics;1489410;experimental_data;NULL;NULL;NULL;NULL;14_11_2020_9_58_2
202;32;6;sortStructureExp;bars;7;4063;white;red,green,blue,saddlebrown,black,white,orange;390,570,210,300,120,660,480;150,180,210,240,270,300,330;32;6;6;vrlt89awtbuehfx;true;166.664;390;195;psychophysics;1495492;experimental_data;NULL;NULL;NULL;NULL;14_11_2020_9_58_2
202;32;6;sortStructureExp;query;7;2662;white;red,green,blue,saddlebrown,black,white,orange;390,570,210,300,120,660,480;150,180,210,240,270,300,330;54;6;6;vrlt89awtbuehfx;true;166.664;390;195;psychophysics;1499170;experimental_data;NULL;NULL;NULL;NULL;14_11_2020_9_58_2
203;8;6;sortStructureExp;bars;2;626;green;red,green;300,39;210,24;32;2;2;vrlt89awtbuehfx;true;166.722;390;195;psychophysics;1501811;experimental_data;NULL;NULL;NULL;NULL;14_11_2020_9_58_2
203;8;6;sortStructureExp;query;2;779;green;red,green;300,39;210,24;50;2;2;vrlt89awtbuehfx;true;166.658;390;195;psychophysics;1503602;experimental_data;NULL;NULL;NULL;NULL;14_11_2020_9_58_2
204;16;6;sortStructureExp;bars;4;2033;saddlebrown;saddlebrown,red,green,blue;210,480,390,300;180,210,240,270;32;1;1;vrlt89awtbuehfx;true;166.657;390;195;psychophysics;1507651;experimental_data;NULL;NULL;NULL;NULL;14_11_2020_9_58_2
204;16;6;sortStructureExp;query;4;380;saddlebrown;saddlebrown,red,green,blue;210,480,390,300;180,210,240,270;49;1;1;vrlt89awtbuehfx;true;166.648;390;195;psychophysics;1509042;experimental_data;NULL;NULL;NULL;NULL;14_11_2020_9_58_2
205;25;6;sortStructureExp;bars;6;2500;yellow;white,red,green,blue,yellow,orange;120,210,480,300,570,390;150,180,210,240,270,300;32;5;4;vrlt89awtbuehfx;false;166.671;390;195;psychophysics;1513553;experimental_data;NULL;NULL;NULL;NULL;14_11_2020_9_58_2
205;25;6;sortStructureExp;query;6;3522;yellow;white,red,green,blue,yellow,orange;120,210,480,300,570,390;150,180,210,240,270,300;52;5;4;vrlt89awtbuehfx;false;166.666;390;195;psychophysics;1518080;experimental_data;NULL;NULL;NULL;NULL;14_11_2020_9_58_2
206;17;6;sortStructureExp;bars;4;1437;red;saddlebrown,red,green,blue;300,210,480,390;180,210,240,270;32;2;2;vrlt89awtbuehfx;true;166.681;390;195;psychophysics;1521538;experimental_data;NULL;NULL;NULL;NULL;14_11_2020_9_58_2
206;17;6;sortStructureExp;query;4;1164;red;saddlebrown,red,green,blue;300,210,480,390;180,210,240,270;50;2;2;vrlt89awtbuehfx;true;166.664;390;195;psychophysics;1523715;experimental_data;NULL;NULL;NULL;NULL;14_11_2020_9_58_2
207;33;6;sortStructureExp;bars;7;3563;green;white,purple,red,green,blue,orange,saddlebrown;120,480,300,660,570,210,390;150,180,210,240,270,300,330;32;4;4;vrlt89awtbuehfx;true;166.656;390;195;psychophysics;1529295;experimental_data;NULL;NULL;NULL;NULL;14_11_2020_9_58_2
207;33;6;sortStructureExp;query;7;2245;green;white,purple,red,green,blue,orange,saddlebrown;120,480,300,660,570,210,390;150,180,210,240,270,300,330;52;4;4;vrlt89awtbuehfx;true;166.686;390;195;psychophysics;1532547;experimental_data;NULL;NULL;NULL;NULL;14_11_2020_9_58_2
208;0;6;sortStructureExp;bars;1;740;red;red;390;180;32;1;1;vrlt89awtbuehfx;true;166.691;390;195;psychophysics;1535299;experimental_data;NULL;NULL;NULL;NULL;14_11_2020_9_58_2
