Trial_index;TrialID;Block;Conditions;Stimulus_type;Number_of_Bars;rt;Query_color;color_sequence;position_sequence;heights;key_press;Correct_Position;response_position;subject_id;correct;avg_frame_time;center_x;center_y;trial_type;time_elapsed;TrialType;timeMs;timeMin;score;reward;date
1;4;1;noStructureExp;bars;5;3187;saddlebrown;orange,saddlebrown,black,pink,red;390,300,210,570,480;180,210,240,270,300;32;2;2;cd1ooce50gh5xra;true;166.683;390;195;psychophysics;107611;practice_trials;NULL;NULL;NULL;NULL;13_11_2020_13_34_6
1;4;1;noStructureExp;query;5;1389;saddlebrown;orange,saddlebrown,black,pink,red;390,300,210,570,480;180,210,240,270,300;50;2;2;cd1ooce50gh5xra;true;166.658;390;195;psychophysics;110004;practice_trial;NULL;NULL;NULL;NULL;13_11_2020_13_34_6
2;0;1;noStructureExp;bars;1;1472;white;white;390;300;32;1;5;cd1ooce50gh5xra;false;166.702;390;195;psychophysics;113483;practice_trials;NULL;NULL;NULL;NULL;13_11_2020_13_34_6
2;0;1;noStructureExp;query;1;2916;white;white;390;300;53;1;5;cd1ooce50gh5xra;false;166.683;390;195;psychophysics;117404;practice_trial;NULL;NULL;NULL;NULL;13_11_2020_13_34_6
3;1;1;noStructureExp;bars;2;2524;pink;pink,black;390,3;270,3;32;1;1;cd1ooce50gh5xra;true;166.673;390;195;psychophysics;121936;practice_trials;NULL;NULL;NULL;NULL;13_11_2020_13_34_6
3;1;1;noStructureExp;query;2;2205;pink;pink,black;390,3;270,3;49;1;1;cd1ooce50gh5xra;true;166.681;390;195;psychophysics;125147;practice_trial;NULL;NULL;NULL;NULL;13_11_2020_13_34_6
4;3;1;noStructureExp;bars;4;4349;yellow;pink,yellow,saddlebrown,red;390,210,480,300;240,270,300,330;32;2;2;cd1ooce50gh5xra;true;166.688;390;195;psychophysics;131502;practice_trials;NULL;NULL;NULL;NULL;13_11_2020_13_34_6
4;3;1;noStructureExp;query;4;1518;yellow;pink,yellow,saddlebrown,red;390,210,480,300;240,270,300,330;50;2;2;cd1ooce50gh5xra;true;166.674;390;195;psychophysics;134025;practice_trial;NULL;NULL;NULL;NULL;13_11_2020_13_34_6
5;2;1;noStructureExp;bars;3;3366;orange;pink,white,orange;480,390,300;180,210,240;32;3;3;cd1ooce50gh5xra;true;166.691;390;195;psychophysics;139405;practice_trials;NULL;NULL;NULL;NULL;13_11_2020_13_34_6
5;2;1;noStructureExp;query;3;647;orange;pink,white,orange;480,390,300;180,210,240;51;3;3;cd1ooce50gh5xra;true;166.641;390;195;psychophysics;141057;practice_trial;NULL;NULL;NULL;NULL;13_11_2020_13_34_6
6;6;1;noStructureExp;bars;7;5721;red;orange,blue,green,saddlebrown,pink,white,red;570,120,660,390,210,300,480;150,180,210,240,270,300,330;32;7;7;cd1ooce50gh5xra;true;166.683;390;195;psychophysics;148783;practice_trials;NULL;NULL;NULL;NULL;13_11_2020_13_34_6
6;6;1;noStructureExp;query;7;599;red;orange,blue,green,saddlebrown,pink,white,red;570,120,660,390,210,300,480;150,180,210,240,270,300,330;55;7;7;cd1ooce50gh5xra;true;166.706;390;195;psychophysics;150389;practice_trial;NULL;NULL;NULL;NULL;13_11_2020_13_34_6
7;5;1;noStructureExp;bars;6;4715;orange;saddlebrown,green,orange,white,black,pink;210,390,570,480,300,120;180,210,240,270,300,330;32;3;3;cd1ooce50gh5xra;true;166.686;390;195;psychophysics;157114;practice_trials;NULL;NULL;NULL;NULL;13_11_2020_13_34_6
7;5;1;noStructureExp;query;6;1270;orange;saddlebrown,green,orange,white,black,pink;210,390,570,480,300,120;180,210,240,270,300,330;51;3;3;cd1ooce50gh5xra;true;166.706;390;195;psychophysics;159388;practice_trial;NULL;NULL;NULL;NULL;13_11_2020_13_34_6
8;1;2;noStructureCont;bars;2;1896;white;white,yellow;300,39;270,3;32;1;1;cd1ooce50gh5xra;true;166.691;390;195;psychophysics;165818;practice_trials;NULL;NULL;NULL;NULL;13_11_2020_13_34_6
8;1;2;noStructureCont;query;2;495;white;white,yellow;300,39;270,3;49;1;1;cd1ooce50gh5xra;true;166.734;390;195;psychophysics;167326;practice_trial;NULL;NULL;NULL;NULL;13_11_2020_13_34_6
9;4;2;noStructureCont;bars;5;2906;purple;pink,purple,green,white,saddlebrown;210,300,390,480,570;180,210,240,270,300;32;2;2;cd1ooce50gh5xra;true;166.695;390;195;psychophysics;172241;practice_trials;NULL;NULL;NULL;NULL;13_11_2020_13_34_6
9;4;2;noStructureCont;query;5;1251;purple;pink,purple,green,white,saddlebrown;210,300,390,480,570;180,210,240,270,300;50;2;2;cd1ooce50gh5xra;true;166.706;390;195;psychophysics;174498;practice_trial;NULL;NULL;NULL;NULL;13_11_2020_13_34_6
10;5;2;noStructureCont;bars;6;4144;green;red,black,green,blue,pink,white;120,210,300,390,480,570;180,210,240,270,300,330;32;3;3;cd1ooce50gh5xra;true;16.669;390;195;psychophysics;180647;practice_trials;NULL;NULL;NULL;NULL;13_11_2020_13_34_6
10;5;2;noStructureCont;query;6;2800;green;red,black,green,blue,pink,white;120,210,300,390,480,570;180,210,240,270,300,330;51;3;3;cd1ooce50gh5xra;true;166.687;390;195;psychophysics;184451;practice_trial;NULL;NULL;NULL;NULL;13_11_2020_13_34_6
11;3;2;noStructureCont;bars;4;1975;blue;green,blue,yellow,saddlebrown;210,300,390,480;240,270,300,330;32;2;2;cd1ooce50gh5xra;true;166.676;390;195;psychophysics;188431;practice_trials;NULL;NULL;NULL;NULL;13_11_2020_13_34_6
11;3;2;noStructureCont;query;4;1340;blue;green,blue,yellow,saddlebrown;210,300,390,480;240,270,300,330;50;2;2;cd1ooce50gh5xra;true;166.653;390;195;psychophysics;190778;practice_trial;NULL;NULL;NULL;NULL;13_11_2020_13_34_6
12;6;2;noStructureCont;bars;7;5081;saddlebrown;black,red,pink,blue,orange,green,saddlebrown;120,210,300,390,480,570,660;150,180,210,240,270,300,330;32;7;7;cd1ooce50gh5xra;true;166.689;390;195;psychophysics;197867;practice_trials;NULL;NULL;NULL;NULL;13_11_2020_13_34_6
12;6;2;noStructureCont;query;7;1107;saddlebrown;black,red,pink,blue,orange,green,saddlebrown;120,210,300,390,480,570,660;150,180,210,240,270,300,330;55;7;7;cd1ooce50gh5xra;true;166.675;390;195;psychophysics;199977;practice_trial;NULL;NULL;NULL;NULL;13_11_2020_13_34_6
13;2;2;noStructureCont;bars;3;1404;white;yellow,green,white;300,390,480;180,210,240;32;3;3;cd1ooce50gh5xra;true;166.677;390;195;psychophysics;203388;practice_trials;NULL;NULL;NULL;NULL;13_11_2020_13_34_6
13;2;2;noStructureCont;query;3;374;white;yellow,green,white;300,390,480;180,210,240;51;3;3;cd1ooce50gh5xra;true;166.675;390;195;psychophysics;204767;practice_trial;NULL;NULL;NULL;NULL;13_11_2020_13_34_6
14;0;2;noStructureCont;bars;1;726;pink;pink;390;300;32;1;1;cd1ooce50gh5xra;true;166.662;390;195;psychophysics;207505;practice_trials;NULL;NULL;NULL;NULL;13_11_2020_13_34_6
14;0;2;noStructureCont;query;1;324;pink;pink;390;300;49;1;1;cd1ooce50gh5xra;true;166.685;390;195;psychophysics;208832;practice_trial;NULL;NULL;NULL;NULL;13_11_2020_13_34_6
NULL;NULL;NULL;NULL;end_of_practice;NULL;2521;NULL;NULL;NULL;NULL;32;NULL;NULL;cd1ooce50gh5xra;NULL;NULL;NULL;NULL;html-keyboard-response;212356;practice_trials;212359;353.932;0.928571;NULL;13_11_2020_13_34_6
1;2;1;noStructureExp;bars;3;7160;blue;blue,pink,purple;390,300,480;270,300,330;32;1;2;gcbscmvhn2vt6bq;false;166.664;390;195;psychophysics;200102;practice_trials;NULL;NULL;NULL;NULL;13_11_2020_12_33_46
1;2;1;noStructureExp;query;3;3928;blue;blue,pink,purple;390,300,480;270,300,330;50;1;2;gcbscmvhn2vt6bq;false;166.665;390;195;psychophysics;205038;practice_trial;NULL;NULL;NULL;NULL;13_11_2020_12_33_46
2;0;1;noStructureExp;bars;1;3321;purple;purple;390;240;32;1;1;gcbscmvhn2vt6bq;true;166.665;390;195;psychophysics;210369;practice_trials;NULL;NULL;NULL;NULL;13_11_2020_12_33_46
2;0;1;noStructureExp;query;1;4238;purple;purple;390;240;49;1;1;gcbscmvhn2vt6bq;true;166.663;390;195;psychophysics;215613;practice_trial;NULL;NULL;NULL;NULL;13_11_2020_12_33_46
3;6;1;noStructureExp;bars;7;7932;pink;pink,blue,black,white,green,red,yellow;300,480,660,390,570,210,120;150,180,210,240,270,300,330;32;1;4;gcbscmvhn2vt6bq;false;166.665;390;195;psychophysics;225556;practice_trials;NULL;NULL;NULL;NULL;13_11_2020_12_33_46
3;6;1;noStructureExp;query;7;3293;pink;pink,blue,black,white,green,red,yellow;300,480,660,390,570,210,120;150,180,210,240,270,300,330;52;1;4;gcbscmvhn2vt6bq;false;166.665;390;195;psychophysics;229856;practice_trial;NULL;NULL;NULL;NULL;13_11_2020_12_33_46
4;1;1;noStructureExp;bars;2;2924;red;blue,red;300,39;210,24;32;2;2;gcbscmvhn2vt6bq;true;166.665;390;195;psychophysics;234788;practice_trials;NULL;NULL;NULL;NULL;13_11_2020_12_33_46
4;1;1;noStructureExp;query;2;1687;red;blue,red;300,39;210,24;50;2;2;gcbscmvhn2vt6bq;true;16.667;390;195;psychophysics;237481;practice_trial;NULL;NULL;NULL;NULL;13_11_2020_12_33_46
5;3;1;noStructureExp;bars;4;4448;white;pink,yellow,white,blue;390,480,300,210;240,270,300,330;32;3;2;gcbscmvhn2vt6bq;false;166.665;390;195;psychophysics;243939;practice_trials;NULL;NULL;NULL;NULL;13_11_2020_12_33_46
5;3;1;noStructureExp;query;4;1949;white;pink,yellow,white,blue;390,480,300,210;240,270,300,330;50;3;2;gcbscmvhn2vt6bq;false;166.665;390;195;psychophysics;246895;practice_trial;NULL;NULL;NULL;NULL;13_11_2020_12_33_46
6;4;1;noStructureExp;bars;5;8437;pink;green,pink,red,saddlebrown,purple;210,390,570,480,300;150,180,210,240,270;32;2;3;gcbscmvhn2vt6bq;false;166.666;390;195;psychophysics;257343;practice_trials;NULL;NULL;NULL;NULL;13_11_2020_12_33_46
6;4;1;noStructureExp;query;5;2283;pink;green,pink,red,saddlebrown,purple;210,390,570,480,300;150,180,210,240,270;51;2;3;gcbscmvhn2vt6bq;false;166.662;390;195;psychophysics;260634;practice_trial;NULL;NULL;NULL;NULL;13_11_2020_12_33_46
7;5;1;noStructureExp;bars;6;4325;green;black,orange,green,pink,purple,yellow;300,210,570,390,120,480;150,180,210,240,270,300;32;3;4;gcbscmvhn2vt6bq;false;166.667;390;195;psychophysics;266967;practice_trials;NULL;NULL;NULL;NULL;13_11_2020_12_33_46
7;5;1;noStructureExp;query;6;2750;green;black,orange,green,pink,purple,yellow;300,210,570,390,120,480;150,180,210,240,270,300;52;3;4;gcbscmvhn2vt6bq;false;166.664;390;195;psychophysics;270723;practice_trial;NULL;NULL;NULL;NULL;13_11_2020_12_33_46
8;6;2;noStructureCont;bars;7;10120;black;black,purple,red,yellow,blue,pink,orange;120,210,300,390,480,570,660;150,180,210,240,270,300,330;32;1;1;gcbscmvhn2vt6bq;true;166.666;390;195;psychophysics;286912;practice_trials;NULL;NULL;NULL;NULL;13_11_2020_12_33_46
8;6;2;noStructureCont;query;7;1753;black;black,purple,red,yellow,blue,pink,orange;120,210,300,390,480,570,660;150,180,210,240,270,300,330;49;1;1;gcbscmvhn2vt6bq;true;166.668;390;195;psychophysics;289672;practice_trial;NULL;NULL;NULL;NULL;13_11_2020_12_33_46
9;3;2;noStructureCont;bars;4;5033;saddlebrown;pink,red,saddlebrown,black;210,300,390,480;240,270,300,330;32;3;3;gcbscmvhn2vt6bq;true;166.665;390;195;psychophysics;296713;practice_trials;NULL;NULL;NULL;NULL;13_11_2020_12_33_46
9;3;2;noStructureCont;query;4;2816;saddlebrown;pink,red,saddlebrown,black;210,300,390,480;240,270,300,330;51;3;3;gcbscmvhn2vt6bq;true;166.666;390;195;psychophysics;300535;practice_trial;NULL;NULL;NULL;NULL;13_11_2020_12_33_46
10;0;2;noStructureCont;bars;1;1453;pink;pink;390;240;32;1;1;gcbscmvhn2vt6bq;true;16.667;390;195;psychophysics;303997;practice_trials;NULL;NULL;NULL;NULL;13_11_2020_12_33_46
10;0;2;noStructureCont;query;1;1443;pink;pink;390;240;49;1;1;gcbscmvhn2vt6bq;true;166.669;390;195;psychophysics;306448;practice_trial;NULL;NULL;NULL;NULL;13_11_2020_12_33_46
11;1;2;noStructureCont;bars;2;2482;red;saddlebrown,red;300,39;210,24;32;2;2;gcbscmvhn2vt6bq;true;166.665;390;195;psychophysics;310939;practice_trials;NULL;NULL;NULL;NULL;13_11_2020_12_33_46
11;1;2;noStructureCont;query;2;1442;red;saddlebrown,red;300,39;210,24;50;2;2;gcbscmvhn2vt6bq;true;16.667;390;195;psychophysics;313387;practice_trial;NULL;NULL;NULL;NULL;13_11_2020_12_33_46
12;2;2;noStructureCont;bars;3;2239;pink;pink,saddlebrown,red;300,390,480;270,300,330;32;1;1;gcbscmvhn2vt6bq;true;166.665;390;195;psychophysics;317634;practice_trials;NULL;NULL;NULL;NULL;13_11_2020_12_33_46
12;2;2;noStructureCont;query;3;1800;pink;pink,saddlebrown,red;300,390,480;270,300,330;49;1;1;gcbscmvhn2vt6bq;true;16.667;390;195;psychophysics;320440;practice_trial;NULL;NULL;NULL;NULL;13_11_2020_12_33_46
13;5;2;noStructureCont;bars;6;6963;white;yellow,green,white,black,red,blue;120,210,300,390,480,570;150,180,210,240,270,300;32;3;3;gcbscmvhn2vt6bq;true;166.665;390;195;psychophysics;329411;practice_trials;NULL;NULL;NULL;NULL;13_11_2020_12_33_46
13;5;2;noStructureCont;query;6;3452;white;yellow,green,white,black,red,blue;120,210,300,390,480,570;150,180,210,240,270,300;51;3;3;gcbscmvhn2vt6bq;true;166.667;390;195;psychophysics;333870;practice_trial;NULL;NULL;NULL;NULL;13_11_2020_12_33_46
14;4;2;noStructureCont;bars;5;4710;pink;saddlebrown,pink,yellow,black,red;210,300,390,480,570;150,180,210,240,270;32;2;2;gcbscmvhn2vt6bq;true;166.665;390;195;psychophysics;340590;practice_trials;NULL;NULL;NULL;NULL;13_11_2020_12_33_46
14;4;2;noStructureCont;query;5;1814;pink;saddlebrown,pink,yellow,black,red;210,300,390,480,570;150,180,210,240,270;50;2;2;gcbscmvhn2vt6bq;true;166.662;390;195;psychophysics;343410;practice_trial;NULL;NULL;NULL;NULL;13_11_2020_12_33_46
NULL;NULL;NULL;NULL;end_of_practice;NULL;6415;NULL;NULL;NULL;NULL;32;NULL;NULL;gcbscmvhn2vt6bq;NULL;NULL;NULL;NULL;html-keyboard-response;350830;practice_trials;350834;584.723;0.642857;NULL;13_11_2020_12_33_46
1;3;1;noStructureExp;bars;4;7441;purple;blue,saddlebrown,yellow,purple;300,210,480,390;180,210,240,270;32;4;4;edj8zsg91okuwrc;true;166.744;390;195;psychophysics;155057;practice_trials;NULL;NULL;NULL;NULL;13_11_2020_12_35_28
1;3;1;noStructureExp;query;4;2316;purple;blue,saddlebrown,yellow,purple;300,210,480,390;180,210,240,270;52;4;4;edj8zsg91okuwrc;true;16.668;390;195;psychophysics;158376;practice_trial;NULL;NULL;NULL;NULL;13_11_2020_12_35_28
2;6;1;noStructureExp;bars;7;13137;yellow;pink,black,purple,yellow,green,blue,orange;570,120,390,660,210,300,480;150,180,210,240,270,300,330;32;4;4;edj8zsg91okuwrc;true;166.716;390;195;psychophysics;173519;practice_trials;NULL;NULL;NULL;NULL;13_11_2020_12_35_28
2;6;1;noStructureExp;query;7;3811;yellow;pink,black,purple,yellow,green,blue,orange;570,120,390,660,210,300,480;150,180,210,240,270,300,330;52;4;4;edj8zsg91okuwrc;true;16.668;390;195;psychophysics;178334;practice_trial;NULL;NULL;NULL;NULL;13_11_2020_12_35_28
3;1;1;noStructureExp;bars;2;4427;black;black,orange;390,3;240,27;32;1;1;edj8zsg91okuwrc;true;16.668;390;195;psychophysics;184769;practice_trials;NULL;NULL;NULL;NULL;13_11_2020_12_35_28
3;1;1;noStructureExp;query;2;1516;black;black,orange;390,3;240,27;49;1;1;edj8zsg91okuwrc;true;16.668;390;195;psychophysics;187288;practice_trial;NULL;NULL;NULL;NULL;13_11_2020_12_35_28
4;0;1;noStructureExp;bars;1;1179;pink;pink;390;210;32;1;1;edj8zsg91okuwrc;true;167.083;390;195;psychophysics;190472;practice_trials;NULL;NULL;NULL;NULL;13_11_2020_12_35_28
4;0;1;noStructureExp;query;1;605;pink;pink;390;210;49;1;1;edj8zsg91okuwrc;true;16.668;390;195;psychophysics;192081;practice_trial;NULL;NULL;NULL;NULL;13_11_2020_12_35_28
5;4;1;noStructureExp;bars;5;4780;pink;red,white,pink,purple,orange;300,210,480,570,390;150,180,210,240,270;32;3;3;edj8zsg91okuwrc;true;16.668;390;195;psychophysics;198865;practice_trials;NULL;NULL;NULL;NULL;13_11_2020_12_35_28
5;4;1;noStructureExp;query;5;1427;pink;red,white,pink,purple,orange;300,210,480,570,390;150,180,210,240,270;51;3;3;edj8zsg91okuwrc;true;16.668;390;195;psychophysics;201295;practice_trial;NULL;NULL;NULL;NULL;13_11_2020_12_35_28
6;2;1;noStructureExp;bars;3;1832;orange;yellow,purple,orange;390,480,300;150,180,210;32;3;3;edj8zsg91okuwrc;true;16.668;390;195;psychophysics;205136;practice_trials;NULL;NULL;NULL;NULL;13_11_2020_12_35_28
6;2;1;noStructureExp;query;3;1517;orange;yellow,purple,orange;390,480,300;150,180,210;51;3;3;edj8zsg91okuwrc;true;16.668;390;195;psychophysics;207661;practice_trial;NULL;NULL;NULL;NULL;13_11_2020_12_35_28
7;5;1;noStructureExp;bars;6;4914;purple;black,saddlebrown,yellow,purple,green,white;300,480,570,210,390,120;150,180,210,240,270,300;32;4;4;edj8zsg91okuwrc;true;166.779;390;195;psychophysics;214592;practice_trials;NULL;NULL;NULL;NULL;13_11_2020_12_35_28
7;5;1;noStructureExp;query;6;1843;purple;black,saddlebrown,yellow,purple,green,white;300,480,570,210,390,120;150,180,210,240,270,300;52;4;4;edj8zsg91okuwrc;true;16.668;390;195;psychophysics;217441;practice_trial;NULL;NULL;NULL;NULL;13_11_2020_12_35_28
8;5;2;noStructureCont;bars;6;4669;red;green,purple,yellow,red,white,black;120,210,300,390,480,570;150,180,210,240,270,300;32;4;4;edj8zsg91okuwrc;true;16.668;390;195;psychophysics;228150;practice_trials;NULL;NULL;NULL;NULL;13_11_2020_12_35_28
8;5;2;noStructureCont;query;6;1513;red;green,purple,yellow,red,white,black;120,210,300,390,480,570;150,180,210,240,270,300;52;4;4;edj8zsg91okuwrc;true;16.668;390;195;psychophysics;230669;practice_trial;NULL;NULL;NULL;NULL;13_11_2020_12_35_28
9;2;2;noStructureCont;bars;3;1661;red;green,black,red;300,390,480;150,180,210;32;3;3;edj8zsg91okuwrc;true;16.668;390;195;psychophysics;234338;practice_trials;NULL;NULL;NULL;NULL;13_11_2020_12_35_28
9;2;2;noStructureCont;query;3;930;red;green,black,red;300,390,480;150,180,210;51;3;3;edj8zsg91okuwrc;true;16.668;390;195;psychophysics;236274;practice_trial;NULL;NULL;NULL;NULL;13_11_2020_12_35_28
10;1;2;noStructureCont;bars;2;1110;white;white,black;300,39;240,27;32;1;1;edj8zsg91okuwrc;true;16.668;390;195;psychophysics;239391;practice_trials;NULL;NULL;NULL;NULL;13_11_2020_12_35_28
10;1;2;noStructureCont;query;2;603;white;white,black;300,39;240,27;49;1;1;edj8zsg91okuwrc;true;16.668;390;195;psychophysics;241000;practice_trial;NULL;NULL;NULL;NULL;13_11_2020_12_35_28
11;6;2;noStructureCont;bars;7;4574;purple;yellow,pink,white,purple,black,red,blue;120,210,300,390,480,570,660;150,180,210,240,270,300,330;32;4;4;edj8zsg91okuwrc;true;16.668;390;195;psychophysics;247583;practice_trials;NULL;NULL;NULL;NULL;13_11_2020_12_35_28
11;6;2;noStructureCont;query;7;2091;purple;yellow,pink,white,purple,black,red,blue;120,210,300,390,480,570,660;150,180,210,240,270,300,330;52;4;4;edj8zsg91okuwrc;true;16.668;390;195;psychophysics;250677;practice_trial;NULL;NULL;NULL;NULL;13_11_2020_12_35_28
12;0;2;noStructureCont;bars;1;915;red;red;390;210;32;1;1;edj8zsg91okuwrc;true;16.668;390;195;psychophysics;253602;practice_trials;NULL;NULL;NULL;NULL;13_11_2020_12_35_28
12;0;2;noStructureCont;query;1;381;red;red;390;210;49;1;1;edj8zsg91okuwrc;true;16.668;390;195;psychophysics;254986;practice_trial;NULL;NULL;NULL;NULL;13_11_2020_12_35_28
13;3;2;noStructureCont;bars;4;2415;white;pink,orange,black,white;210,300,390,480;180,210,240,270;32;4;4;edj8zsg91okuwrc;true;16.668;390;195;psychophysics;259408;practice_trials;NULL;NULL;NULL;NULL;13_11_2020_12_35_28
13;3;2;noStructureCont;query;4;1248;white;pink,orange,black,white;210,300,390,480;180,210,240,270;52;4;4;edj8zsg91okuwrc;true;16.668;390;195;psychophysics;261658;practice_trial;NULL;NULL;NULL;NULL;13_11_2020_12_35_28
14;4;2;noStructureCont;bars;5;3373;black;orange,red,black,blue,pink;210,300,390,480,570;150,180,210,240,270;32;3;3;edj8zsg91okuwrc;true;16.668;390;195;psychophysics;267036;practice_trials;NULL;NULL;NULL;NULL;13_11_2020_12_35_28
14;4;2;noStructureCont;query;5;1143;black;orange,red,black,blue,pink;210,300,390,480,570;150,180,210,240,270;51;3;3;edj8zsg91okuwrc;true;16.668;390;195;psychophysics;269185;practice_trial;NULL;NULL;NULL;NULL;13_11_2020_12_35_28
NULL;NULL;NULL;NULL;end_of_practice;NULL;3406;NULL;NULL;NULL;NULL;32;NULL;NULL;edj8zsg91okuwrc;NULL;NULL;NULL;NULL;html-keyboard-response;273595;practice_trials;273599;455.998;1;NULL;13_11_2020_12_35_28
1;11;1;queryStructureExp;bars;3;2042;blue;black,white,blue;300,390,480;210,240,270;32;3;3;v2dh8a69mhuhkqz;true;16.666;390;195;psychophysics;13617;experimental_data;NULL;NULL;NULL;NULL;13_11_2020_13_27_25
1;11;1;queryStructureExp;query;3;1910;blue;black,white,blue;300,390,480;210,240,270;51;3;3;v2dh8a69mhuhkqz;true;166.715;390;195;psychophysics;16537;experimental_data;NULL;NULL;NULL;NULL;13_11_2020_13_27_25
2;22;1;queryStructureExp;bars;5;5664;saddlebrown;blue,orange,black,pink,saddlebrown;480,210,570,300,390;210,240,270,300,330;32;5;5;v2dh8a69mhuhkqz;true;16.666;390;195;psychophysics;24211;experimental_data;NULL;NULL;NULL;NULL;13_11_2020_13_27_25
2;22;1;queryStructureExp;query;5;1591;saddlebrown;blue,orange,black,pink,saddlebrown;480,210,570,300,390;210,240,270,300,330;53;5;5;v2dh8a69mhuhkqz;true;166.726;390;195;psychophysics;26807;experimental_data;NULL;NULL;NULL;NULL;13_11_2020_13_27_25
3;18;1;queryStructureExp;bars;4;3111;yellow;green,blue,red,yellow;390,300,210,480;240,270,300,330;32;4;4;v2dh8a69mhuhkqz;true;16.666;390;195;psychophysics;31926;experimental_data;NULL;NULL;NULL;NULL;13_11_2020_13_27_25
3;18;1;queryStructureExp;query;4;1373;yellow;green,blue,red,yellow;390,300,210,480;240,270,300,330;52;4;4;v2dh8a69mhuhkqz;true;16.666;390;195;psychophysics;34304;experimental_data;NULL;NULL;NULL;NULL;13_11_2020_13_27_25
4;10;1;queryStructureExp;bars;3;6114;orange;saddlebrown,green,orange;300,390,480;240,270,300;32;3;3;v2dh8a69mhuhkqz;true;16.666;390;195;psychophysics;42426;experimental_data;NULL;NULL;NULL;NULL;13_11_2020_13_27_25
4;10;1;queryStructureExp;query;3;1309;orange;saddlebrown,green,orange;300,390,480;240,270,300;51;3;3;v2dh8a69mhuhkqz;true;16.666;390;195;psychophysics;44742;experimental_data;NULL;NULL;NULL;NULL;13_11_2020_13_27_25
5;21;1;queryStructureExp;bars;5;8665;pink;orange,saddlebrown,yellow,blue,pink;210,570,390,300,480;150,180,210,240,270;32;5;4;v2dh8a69mhuhkqz;false;220.654;390;195;psychophysics;55415;experimental_data;NULL;NULL;NULL;NULL;13_11_2020_13_27_25
5;21;1;queryStructureExp;query;5;1768;pink;orange,saddlebrown,yellow,blue,pink;210,570,390,300,480;150,180,210,240,270;52;5;4;v2dh8a69mhuhkqz;false;16.666;390;195;psychophysics;58191;experimental_data;NULL;NULL;NULL;NULL;13_11_2020_13_27_25
6;7;1;queryStructureExp;bars;2;3046;pink;orange,pink;300,39;240,27;32;2;2;v2dh8a69mhuhkqz;true;16.666;390;195;psychophysics;63246;experimental_data;NULL;NULL;NULL;NULL;13_11_2020_13_27_25
6;7;1;queryStructureExp;query;2;1961;pink;orange,pink;300,39;240,27;50;2;2;v2dh8a69mhuhkqz;true;166.716;390;195;psychophysics;66213;experimental_data;NULL;NULL;NULL;NULL;13_11_2020_13_27_25
7;6;1;queryStructureExp;bars;2;2702;white;pink,white;300,39;270,3;32;2;2;v2dh8a69mhuhkqz;true;16.666;390;195;psychophysics;70924;experimental_data;NULL;NULL;NULL;NULL;13_11_2020_13_27_25
7;6;1;queryStructureExp;query;2;1436;white;pink,white;300,39;270,3;50;2;2;v2dh8a69mhuhkqz;true;16.666;390;195;psychophysics;73365;experimental_data;NULL;NULL;NULL;NULL;13_11_2020_13_27_25
8;5;1;queryStructureExp;bars;2;3532;purple;pink,purple;300,39;270,3;32;2;2;v2dh8a69mhuhkqz;true;166.688;390;195;psychophysics;78905;experimental_data;NULL;NULL;NULL;NULL;13_11_2020_13_27_25
8;5;1;queryStructureExp;query;2;1085;purple;pink,purple;300,39;270,3;50;2;2;v2dh8a69mhuhkqz;true;16.666;390;195;psychophysics;80996;experimental_data;NULL;NULL;NULL;NULL;13_11_2020_13_27_25
9;26;1;queryStructureExp;bars;6;7590;yellow;orange,saddlebrown,purple,pink,white,yellow;210,570,300,390,120,480;150,180,210,240,270,300;32;6;6;v2dh8a69mhuhkqz;true;190.544;390;195;psychophysics;90596;experimental_data;NULL;NULL;NULL;NULL;13_11_2020_13_27_25
9;26;1;queryStructureExp;query;6;4907;yellow;orange,saddlebrown,purple,pink,white,yellow;210,570,300,390,120,480;150,180,210,240,270,300;54;6;6;v2dh8a69mhuhkqz;true;411.801;390;195;psychophysics;96507;experimental_data;NULL;NULL;NULL;NULL;13_11_2020_13_27_25
10;3;1;queryStructureExp;bars;1;1511;black;black;390;330;32;1;1;v2dh8a69mhuhkqz;true;16.666;390;195;psychophysics;100026;experimental_data;NULL;NULL;NULL;NULL;13_11_2020_13_27_25
10;3;1;queryStructureExp;query;1;958;black;black;390;330;49;1;1;v2dh8a69mhuhkqz;true;16.666;390;195;psychophysics;101991;experimental_data;NULL;NULL;NULL;NULL;13_11_2020_13_27_25
11;12;1;queryStructureExp;bars;3;4438;purple;white,red,purple;300,480,390;270,300,330;32;3;3;v2dh8a69mhuhkqz;true;166.684;390;195;psychophysics;108435;experimental_data;NULL;NULL;NULL;NULL;13_11_2020_13_27_25
11;12;1;queryStructureExp;query;3;1267;purple;white,red,purple;300,480,390;270,300,330;51;3;3;v2dh8a69mhuhkqz;true;16.666;390;195;psychophysics;110709;experimental_data;NULL;NULL;NULL;NULL;13_11_2020_13_27_25
12;20;1;queryStructureExp;bars;5;5840;black;saddlebrown,purple,orange,white,black;570,480,300,210,390;210,240,270,300,330;32;5;5;v2dh8a69mhuhkqz;true;166.677;390;195;psychophysics;118556;experimental_data;NULL;NULL;NULL;NULL;13_11_2020_13_27_25
12;20;1;queryStructureExp;query;5;1370;black;saddlebrown,purple,orange,white,black;570,480,300,210,390;210,240,270,300,330;53;5;5;v2dh8a69mhuhkqz;true;16.666;390;195;psychophysics;120931;experimental_data;NULL;NULL;NULL;NULL;13_11_2020_13_27_25
13;33;1;queryStructureExp;bars;7;7428;orange;blue,purple,white,yellow,green,saddlebrown,orange;660,210,300,480,390,120,570;150,180,210,240,270,300,330;32;7;7;v2dh8a69mhuhkqz;true;188.249;390;195;psychophysics;130366;experimental_data;NULL;NULL;NULL;NULL;13_11_2020_13_27_25
13;33;1;queryStructureExp;query;7;1383;orange;blue,purple,white,yellow,green,saddlebrown,orange;660,210,300,480,390,120,570;150,180,210,240,270,300,330;55;7;7;v2dh8a69mhuhkqz;true;16.666;390;195;psychophysics;132756;experimental_data;NULL;NULL;NULL;NULL;13_11_2020_13_27_25
14;29;1;queryStructureExp;bars;6;12264;saddlebrown;black,yellow,purple,orange,green,saddlebrown;480,210,570,120,390,300;180,210,240,270,300,330;32;6;6;v2dh8a69mhuhkqz;true;175.262;390;195;psychophysics;147027;experimental_data;NULL;NULL;NULL;NULL;13_11_2020_13_27_25
14;29;1;queryStructureExp;query;6;1161;saddlebrown;black,yellow,purple,orange,green,saddlebrown;480,210,570,120,390,300;180,210,240,270,300,330;54;6;6;v2dh8a69mhuhkqz;true;16.666;390;195;psychophysics;149195;experimental_data;NULL;NULL;NULL;NULL;13_11_2020_13_27_25
15;13;1;queryStructureExp;bars;3;2624;orange;white,purple,orange;300,390,480;210,240,270;32;3;3;v2dh8a69mhuhkqz;true;16.666;390;195;psychophysics;153826;experimental_data;NULL;NULL;NULL;NULL;13_11_2020_13_27_25
15;13;1;queryStructureExp;query;3;1483;orange;white,purple,orange;300,390,480;210,240,270;51;3;3;v2dh8a69mhuhkqz;true;166.733;390;195;psychophysics;156314;experimental_data;NULL;NULL;NULL;NULL;13_11_2020_13_27_25
16;1;1;queryStructureExp;bars;1;1129;purple;purple;390;150;32;1;1;v2dh8a69mhuhkqz;true;16.666;390;195;psychophysics;159452;experimental_data;NULL;NULL;NULL;NULL;13_11_2020_13_27_25
16;1;1;queryStructureExp;query;1;543;purple;purple;390;150;49;1;1;v2dh8a69mhuhkqz;true;16.666;390;195;psychophysics;161002;experimental_data;NULL;NULL;NULL;NULL;13_11_2020_13_27_25
17;4;1;queryStructureExp;bars;1;1031;purple;purple;390;240;32;1;1;v2dh8a69mhuhkqz;true;16.666;390;195;psychophysics;164042;experimental_data;NULL;NULL;NULL;NULL;13_11_2020_13_27_25
17;4;1;queryStructureExp;query;1;444;purple;purple;390;240;49;1;1;v2dh8a69mhuhkqz;true;16.666;390;195;psychophysics;165492;experimental_data;NULL;NULL;NULL;NULL;13_11_2020_13_27_25
18;17;1;queryStructureExp;bars;4;3277;white;orange,saddlebrown,purple,white;300,390,210,480;150,180,210,240;32;4;4;v2dh8a69mhuhkqz;true;16.666;390;195;psychophysics;170779;experimental_data;NULL;NULL;NULL;NULL;13_11_2020_13_27_25
18;17;1;queryStructureExp;query;4;1847;white;orange,saddlebrown,purple,white;300,390,210,480;150,180,210,240;52;4;4;v2dh8a69mhuhkqz;true;16.666;390;195;psychophysics;173634;experimental_data;NULL;NULL;NULL;NULL;13_11_2020_13_27_25
19;2;1;queryStructureExp;bars;1;949;red;red;390;180;32;1;1;v2dh8a69mhuhkqz;true;166.777;390;195;psychophysics;176591;experimental_data;NULL;NULL;NULL;NULL;13_11_2020_13_27_25
19;2;1;queryStructureExp;query;1;544;red;red;390;180;49;1;1;v2dh8a69mhuhkqz;true;16.666;390;195;psychophysics;178141;experimental_data;NULL;NULL;NULL;NULL;13_11_2020_13_27_25
20;16;1;queryStructureExp;bars;4;3369;green;blue,red,black,green;390,480,300,210;240,270,300,330;32;4;4;v2dh8a69mhuhkqz;true;16.666;390;195;psychophysics;183525;experimental_data;NULL;NULL;NULL;NULL;13_11_2020_13_27_25
20;16;1;queryStructureExp;query;4;1216;green;blue,red,black,green;390,480,300,210;240,270,300,330;52;4;4;v2dh8a69mhuhkqz;true;16.666;390;195;psychophysics;185746;experimental_data;NULL;NULL;NULL;NULL;13_11_2020_13_27_25
21;14;1;queryStructureExp;bars;3;2357;yellow;black,purple,yellow;480,390,300;210,240,270;32;3;3;v2dh8a69mhuhkqz;true;16.666;390;195;psychophysics;190113;experimental_data;NULL;NULL;NULL;NULL;13_11_2020_13_27_25
21;14;1;queryStructureExp;query;3;1339;yellow;black,purple,yellow;480,390,300;210,240,270;51;3;3;v2dh8a69mhuhkqz;true;16.666;390;195;psychophysics;192457;experimental_data;NULL;NULL;NULL;NULL;13_11_2020_13_27_25
22;24;1;queryStructureExp;bars;5;5833;yellow;purple,red,green,black,yellow;570,300,210,480,390;210,240,270,300,330;32;5;5;v2dh8a69mhuhkqz;true;166.675;390;195;psychophysics;200299;experimental_data;NULL;NULL;NULL;NULL;13_11_2020_13_27_25
22;24;1;queryStructureExp;query;5;1375;yellow;purple,red,green,black,yellow;570,300,210,480,390;210,240,270,300,330;53;5;5;v2dh8a69mhuhkqz;true;16.666;390;195;psychophysics;202681;experimental_data;NULL;NULL;NULL;NULL;13_11_2020_13_27_25
23;30;1;queryStructureExp;bars;7;9725;black;white,red,yellow,pink,saddlebrown,orange,black;210,480,300,120,570,390,660;150,180,210,240,270,300,330;32;7;7;v2dh8a69mhuhkqz;true;166.673;390;195;psychophysics;214412;experimental_data;NULL;NULL;NULL;NULL;13_11_2020_13_27_25
23;30;1;queryStructureExp;query;7;1215;black;white,red,yellow,pink,saddlebrown,orange,black;210,480,300,120,570,390,660;150,180,210,240,270,300,330;55;7;7;v2dh8a69mhuhkqz;true;16.666;390;195;psychophysics;216632;experimental_data;NULL;NULL;NULL;NULL;13_11_2020_13_27_25
24;25;1;queryStructureExp;bars;6;8585;orange;pink,yellow,red,white,blue,orange;210,390,120,570,300,480;180,210,240,270,300,330;32;6;6;v2dh8a69mhuhkqz;true;16.666;390;195;psychophysics;227226;experimental_data;NULL;NULL;NULL;NULL;13_11_2020_13_27_25
24;25;1;queryStructureExp;query;6;3418;orange;pink,yellow,red,white,blue,orange;210,390,120,570,300,480;180,210,240,270,300,330;54;6;6;v2dh8a69mhuhkqz;true;16.666;390;195;psychophysics;231648;experimental_data;NULL;NULL;NULL;NULL;13_11_2020_13_27_25
25;15;1;queryStructureExp;bars;4;3129;black;orange,red,saddlebrown,black;210,300,480,390;240,270,300,330;32;4;4;v2dh8a69mhuhkqz;true;16.666;390;195;psychophysics;236786;experimental_data;NULL;NULL;NULL;NULL;13_11_2020_13_27_25
25;15;1;queryStructureExp;query;4;1434;black;orange,red,saddlebrown,black;210,300,480,390;240,270,300,330;52;4;4;v2dh8a69mhuhkqz;true;16.666;390;195;psychophysics;239226;experimental_data;NULL;NULL;NULL;NULL;13_11_2020_13_27_25
26;0;1;queryStructureExp;bars;1;808;blue;blue;390;210;32;1;1;v2dh8a69mhuhkqz;true;16.666;390;195;psychophysics;242040;experimental_data;NULL;NULL;NULL;NULL;13_11_2020_13_27_25
26;0;1;queryStructureExp;query;1;353;blue;blue;390;210;49;1;1;v2dh8a69mhuhkqz;true;16.666;390;195;psychophysics;243400;experimental_data;NULL;NULL;NULL;NULL;13_11_2020_13_27_25
27;27;1;queryStructureExp;bars;6;6266;orange;red,white,green,black,blue,orange;390,300,210,480,120,570;150,180,210,240,270,300;32;6;6;v2dh8a69mhuhkqz;true;16.668;390;195;psychophysics;251677;experimental_data;NULL;NULL;NULL;NULL;13_11_2020_13_27_25
27;27;1;queryStructureExp;query;6;1316;orange;red,white,green,black,blue,orange;390,300,210,480,120,570;150,180,210,240,270,300;54;6;6;v2dh8a69mhuhkqz;true;16.666;390;195;psychophysics;254000;experimental_data;NULL;NULL;NULL;NULL;13_11_2020_13_27_25
28;19;1;queryStructureExp;bars;4;2655;blue;white,red,purple,blue;390,210,300,480;240,270,300,330;32;4;4;v2dh8a69mhuhkqz;true;166.692;390;195;psychophysics;258663;experimental_data;NULL;NULL;NULL;NULL;13_11_2020_13_27_25
28;19;1;queryStructureExp;query;4;1243;blue;white,red,purple,blue;390,210,300,480;240,270,300,330;52;4;4;v2dh8a69mhuhkqz;true;16.666;390;195;psychophysics;260911;experimental_data;NULL;NULL;NULL;NULL;13_11_2020_13_27_25
29;34;1;queryStructureExp;bars;7;5832;white;black,green,purple,blue,pink,yellow,white;390,300,210,120,660,570,480;150,180,210,240,270,300,330;32;7;7;v2dh8a69mhuhkqz;true;166.678;390;195;psychophysics;268754;experimental_data;NULL;NULL;NULL;NULL;13_11_2020_13_27_25
29;34;1;queryStructureExp;query;7;1376;white;black,green,purple,blue,pink,yellow,white;390,300,210,120,660,570,480;150,180,210,240,270,300,330;55;7;7;v2dh8a69mhuhkqz;true;16.666;390;195;psychophysics;271135;experimental_data;NULL;NULL;NULL;NULL;13_11_2020_13_27_25
30;9;1;queryStructureExp;bars;2;2304;pink;yellow,pink;300,39;240,27;32;2;2;v2dh8a69mhuhkqz;true;16.666;390;195;psychophysics;275449;experimental_data;NULL;NULL;NULL;NULL;13_11_2020_13_27_25
30;9;1;queryStructureExp;query;2;511;pink;yellow,pink;300,39;240,27;50;2;2;v2dh8a69mhuhkqz;true;16.666;390;195;psychophysics;276967;experimental_data;NULL;NULL;NULL;NULL;13_11_2020_13_27_25
31;8;1;queryStructureExp;bars;2;1945;blue;yellow,blue;390,3;240,27;32;2;2;v2dh8a69mhuhkqz;true;16.666;390;195;psychophysics;280924;experimental_data;NULL;NULL;NULL;NULL;13_11_2020_13_27_25
31;8;1;queryStructureExp;query;2;671;blue;yellow,blue;390,3;240,27;50;2;2;v2dh8a69mhuhkqz;true;16.666;390;195;psychophysics;282600;experimental_data;NULL;NULL;NULL;NULL;13_11_2020_13_27_25
32;28;1;queryStructureExp;bars;6;5606;saddlebrown;purple,blue,black,orange,red,saddlebrown;480,210,570,300,120,390;150,180,210,240,270,300;32;6;5;v2dh8a69mhuhkqz;false;166.678;390;195;psychophysics;290215;experimental_data;NULL;NULL;NULL;NULL;13_11_2020_13_27_25
32;28;1;queryStructureExp;query;6;1354;saddlebrown;purple,blue,black,orange,red,saddlebrown;480,210,570,300,120,390;150,180,210,240,270,300;53;6;5;v2dh8a69mhuhkqz;false;16.666;390;195;psychophysics;292576;experimental_data;NULL;NULL;NULL;NULL;13_11_2020_13_27_25
33;31;1;queryStructureExp;bars;7;11485;yellow;purple,blue,black,orange,green,pink,yellow;210,660,300,570,480,390,120;150,180,210,240,270,300,330;32;7;6;v2dh8a69mhuhkqz;false;181.128;390;195;psychophysics;306073;experimental_data;NULL;NULL;NULL;NULL;13_11_2020_13_27_25
33;31;1;queryStructureExp;query;7;1395;yellow;purple,blue,black,orange,green,pink,yellow;210,660,300,570,480,390,120;150,180,210,240,270,300,330;54;7;6;v2dh8a69mhuhkqz;false;166.735;390;195;psychophysics;308473;experimental_data;NULL;NULL;NULL;NULL;13_11_2020_13_27_25
34;23;1;queryStructureExp;bars;5;4795;yellow;white,black,red,purple,yellow;570,480,210,390,300;180,210,240,270,300;32;5;5;v2dh8a69mhuhkqz;true;16.666;390;195;psychophysics;315274;experimental_data;NULL;NULL;NULL;NULL;13_11_2020_13_27_25
34;23;1;queryStructureExp;query;5;1077;yellow;white,black,red,purple,yellow;570,480,210,390,300;180,210,240,270,300;53;5;5;v2dh8a69mhuhkqz;true;16.666;390;195;psychophysics;317359;experimental_data;NULL;NULL;NULL;NULL;13_11_2020_13_27_25
35;32;1;queryStructureExp;bars;7;7360;pink;black,green,blue,orange,white,purple,pink;480,660,210,390,300,570,120;150,180,210,240,270,300,330;32;7;6;v2dh8a69mhuhkqz;false;204.158;390;195;psychophysics;326726;experimental_data;NULL;NULL;NULL;NULL;13_11_2020_13_27_25
35;32;1;queryStructureExp;query;7;2612;pink;black,green,blue,orange,white,purple,pink;480,660,210,390,300,570,120;150,180,210,240,270,300,330;54;7;6;v2dh8a69mhuhkqz;false;166.704;390;195;psychophysics;330342;experimental_data;NULL;NULL;NULL;NULL;13_11_2020_13_27_25
NULL;NULL;0;NULL;end_of_block;NULL;5316;NULL;NULL;NULL;NULL;32;NULL;NULL;v2dh8a69mhuhkqz;NULL;NULL;NULL;NULL;html-keyboard-response;336664;experimental_data;336690;56.115;0.885714;NULL;13_11_2020_13_27_25
36;5;2;noStructureExp;bars;2;1120;saddlebrown;pink,saddlebrown;300,39;270,3;32;2;2;v2dh8a69mhuhkqz;true;166.739;390;195;psychophysics;338790;experimental_data;NULL;NULL;NULL;NULL;13_11_2020_13_27_25
36;5;2;noStructureExp;query;2;962;saddlebrown;pink,saddlebrown;300,39;270,3;50;2;2;v2dh8a69mhuhkqz;true;16.666;390;195;psychophysics;340757;experimental_data;NULL;NULL;NULL;NULL;13_11_2020_13_27_25
37;4;2;noStructureExp;bars;1;783;white;white;390;240;32;1;1;v2dh8a69mhuhkqz;true;16.666;390;195;psychophysics;343549;experimental_data;NULL;NULL;NULL;NULL;13_11_2020_13_27_25
37;4;2;noStructureExp;query;1;425;white;white;390;240;49;1;1;v2dh8a69mhuhkqz;true;16.666;390;195;psychophysics;344982;experimental_data;NULL;NULL;NULL;NULL;13_11_2020_13_27_25
38;34;2;noStructureExp;bars;7;5872;green;purple,white,saddlebrown,pink,green,orange,red;390,300,210,120,660,570,480;150,180,210,240,270,300,330;32;5;5;v2dh8a69mhuhkqz;true;193.082;390;195;psychophysics;352861;experimental_data;NULL;NULL;NULL;NULL;13_11_2020_13_27_25
38;34;2;noStructureExp;query;7;5042;green;purple,white,saddlebrown,pink,green,orange,red;390,300,210,120,660,570,480;150,180,210,240,270,300,330;53;5;5;v2dh8a69mhuhkqz;true;258.142;390;195;psychophysics;358909;experimental_data;NULL;NULL;NULL;NULL;13_11_2020_13_27_25
39;15;2;noStructureExp;bars;4;3774;red;yellow,black,red,white;210,300,480,390;240,270,300,330;32;3;3;v2dh8a69mhuhkqz;true;16.666;390;195;psychophysics;364693;experimental_data;NULL;NULL;NULL;NULL;13_11_2020_13_27_25
39;15;2;noStructureExp;query;4;1315;red;yellow,black,red,white;210,300,480,390;240,270,300,330;51;3;3;v2dh8a69mhuhkqz;true;16.666;390;195;psychophysics;367013;experimental_data;NULL;NULL;NULL;NULL;13_11_2020_13_27_25
40;14;2;noStructureExp;bars;3;2056;white;white,orange,blue;480,390,300;210,240,270;32;1;1;v2dh8a69mhuhkqz;true;16.666;390;195;psychophysics;371077;experimental_data;NULL;NULL;NULL;NULL;13_11_2020_13_27_25
40;14;2;noStructureExp;query;3;789;white;white,orange,blue;480,390,300;210,240,270;49;1;1;v2dh8a69mhuhkqz;true;16.666;390;195;psychophysics;372871;experimental_data;NULL;NULL;NULL;NULL;13_11_2020_13_27_25
41;8;2;noStructureExp;bars;2;1142;yellow;orange,yellow;390,3;240,27;32;2;2;v2dh8a69mhuhkqz;true;16.666;390;195;psychophysics;376030;experimental_data;NULL;NULL;NULL;NULL;13_11_2020_13_27_25
41;8;2;noStructureExp;query;2;666;yellow;orange,yellow;390,3;240,27;50;2;2;v2dh8a69mhuhkqz;true;16.666;390;195;psychophysics;377716;experimental_data;NULL;NULL;NULL;NULL;13_11_2020_13_27_25
42;10;2;noStructureExp;bars;3;1833;saddlebrown;saddlebrown,red,blue;300,390,480;240,270,300;32;1;1;v2dh8a69mhuhkqz;true;16.666;390;195;psychophysics;381559;experimental_data;NULL;NULL;NULL;NULL;13_11_2020_13_27_25
42;10;2;noStructureExp;query;3;1681;saddlebrown;saddlebrown,red,blue;300,390,480;240,270,300;49;1;1;v2dh8a69mhuhkqz;true;16.666;390;195;psychophysics;384245;experimental_data;NULL;NULL;NULL;NULL;13_11_2020_13_27_25
43;9;2;noStructureExp;bars;2;1127;green;red,green;300,39;240,27;32;2;2;v2dh8a69mhuhkqz;true;16.666;390;195;psychophysics;387382;experimental_data;NULL;NULL;NULL;NULL;13_11_2020_13_27_25
43;9;2;noStructureExp;query;2;671;green;red,green;300,39;240,27;50;2;2;v2dh8a69mhuhkqz;true;166.809;390;195;psychophysics;389060;experimental_data;NULL;NULL;NULL;NULL;13_11_2020_13_27_25
44;1;2;noStructureExp;bars;1;702;pink;pink;390;150;32;1;1;v2dh8a69mhuhkqz;true;16.666;390;195;psychophysics;391774;experimental_data;NULL;NULL;NULL;NULL;13_11_2020_13_27_25
44;1;2;noStructureExp;query;1;400;pink;pink;390;150;49;1;1;v2dh8a69mhuhkqz;true;16.666;390;195;psychophysics;393180;experimental_data;NULL;NULL;NULL;NULL;13_11_2020_13_27_25
45;31;2;noStructureExp;bars;7;6807;green;red,white,green,blue,pink,black,saddlebrown;210,660,300,570,480,390,120;150,180,210,240,270,300,330;32;3;3;v2dh8a69mhuhkqz;true;205.566;390;195;psychophysics;401996;experimental_data;NULL;NULL;NULL;NULL;13_11_2020_13_27_25
45;31;2;noStructureExp;query;7;5801;green;red,white,green,blue,pink,black,saddlebrown;210,660,300,570,480,390,120;150,180,210,240,270,300,330;51;3;3;v2dh8a69mhuhkqz;true;386.651;390;195;psychophysics;408805;experimental_data;NULL;NULL;NULL;NULL;13_11_2020_13_27_25
46;11;2;noStructureExp;bars;3;2380;pink;pink,purple,yellow;300,390,480;210,240,270;32;1;1;v2dh8a69mhuhkqz;true;16.666;390;195;psychophysics;413192;experimental_data;NULL;NULL;NULL;NULL;13_11_2020_13_27_25
46;11;2;noStructureExp;query;3;856;pink;pink,purple,yellow;300,390,480;210,240,270;49;1;1;v2dh8a69mhuhkqz;true;16.666;390;195;psychophysics;415054;experimental_data;NULL;NULL;NULL;NULL;13_11_2020_13_27_25
47;7;2;noStructureExp;bars;2;1431;white;white,green;300,39;240,27;32;1;1;v2dh8a69mhuhkqz;true;16.666;390;195;psychophysics;418491;experimental_data;NULL;NULL;NULL;NULL;13_11_2020_13_27_25
47;7;2;noStructureExp;query;2;611;white;white,green;300,39;240,27;49;1;1;v2dh8a69mhuhkqz;true;16.666;390;195;psychophysics;420108;experimental_data;NULL;NULL;NULL;NULL;13_11_2020_13_27_25
48;28;2;noStructureExp;bars;6;7529;pink;black,saddlebrown,yellow,red,pink,blue;480,210,570,300,120,390;150,180,210,240,270,300;32;5;4;v2dh8a69mhuhkqz;false;214.159;390;195;psychophysics;429643;experimental_data;NULL;NULL;NULL;NULL;13_11_2020_13_27_25
48;28;2;noStructureExp;query;6;3974;pink;black,saddlebrown,yellow,red,pink,blue;480,210,570,300,120,390;150,180,210,240,270,300;52;5;4;v2dh8a69mhuhkqz;false;325.124;390;195;psychophysics;434622;experimental_data;NULL;NULL;NULL;NULL;13_11_2020_13_27_25
49;23;2;noStructureExp;bars;5;4842;orange;green,blue,pink,red,orange;570,480,210,390,300;180,210,240,270,300;32;5;5;v2dh8a69mhuhkqz;true;171.427;390;195;psychophysics;441471;experimental_data;NULL;NULL;NULL;NULL;13_11_2020_13_27_25
49;23;2;noStructureExp;query;5;1398;orange;green,blue,pink,red,orange;570,480,210,390,300;180,210,240,270,300;53;5;5;v2dh8a69mhuhkqz;true;16.666;390;195;psychophysics;443875;experimental_data;NULL;NULL;NULL;NULL;13_11_2020_13_27_25
50;33;2;noStructureExp;bars;7;10793;white;yellow,saddlebrown,white,blue,pink,orange,purple;660,210,300,480,390,120,570;150,180,210,240,270,300,330;32;3;3;v2dh8a69mhuhkqz;true;192.908;390;195;psychophysics;456675;experimental_data;NULL;NULL;NULL;NULL;13_11_2020_13_27_25
50;33;2;noStructureExp;query;7;4410;white;yellow,saddlebrown,white,blue,pink,orange,purple;660,210,300,480,390,120,570;150,180,210,240,270,300,330;51;3;3;v2dh8a69mhuhkqz;true;314.326;390;195;psychophysics;462090;experimental_data;NULL;NULL;NULL;NULL;13_11_2020_13_27_25
51;22;2;noStructureExp;bars;5;5730;white;yellow,black,blue,red,white;480,210,570,300,390;210,240,270,300,330;32;5;5;v2dh8a69mhuhkqz;true;166.675;390;195;psychophysics;469828;experimental_data;NULL;NULL;NULL;NULL;13_11_2020_13_27_25
51;22;2;noStructureExp;query;5;993;white;yellow,black,blue,red,white;480,210,570,300,390;210,240,270,300,330;53;5;5;v2dh8a69mhuhkqz;true;16.666;390;195;psychophysics;471827;experimental_data;NULL;NULL;NULL;NULL;13_11_2020_13_27_25
52;0;2;noStructureExp;bars;1;709;black;black;390;210;32;1;1;v2dh8a69mhuhkqz;true;16.666;390;195;psychophysics;474546;experimental_data;NULL;NULL;NULL;NULL;13_11_2020_13_27_25
52;0;2;noStructureExp;query;1;501;black;black;390;210;49;1;1;v2dh8a69mhuhkqz;true;16.666;390;195;psychophysics;476058;experimental_data;NULL;NULL;NULL;NULL;13_11_2020_13_27_25
53;6;2;noStructureExp;bars;2;983;green;pink,green;300,39;270,3;32;2;2;v2dh8a69mhuhkqz;true;16.666;390;195;psychophysics;479054;experimental_data;NULL;NULL;NULL;NULL;13_11_2020_13_27_25
53;6;2;noStructureExp;query;2;732;green;pink,green;300,39;270,3;50;2;2;v2dh8a69mhuhkqz;true;16.666;390;195;psychophysics;480792;experimental_data;NULL;NULL;NULL;NULL;13_11_2020_13_27_25
54;27;2;noStructureExp;bars;6;4174;saddlebrown;black,saddlebrown,red,green,pink,orange;390,300,210,480,120,570;150,180,210,240,270,300;32;2;2;v2dh8a69mhuhkqz;true;16.666;390;195;psychophysics;486978;experimental_data;NULL;NULL;NULL;NULL;13_11_2020_13_27_25
54;27;2;noStructureExp;query;6;1990;saddlebrown;black,saddlebrown,red,green,pink,orange;390,300,210,480,120,570;150,180,210,240,270,300;50;2;2;v2dh8a69mhuhkqz;true;166.711;390;195;psychophysics;489978;experimental_data;NULL;NULL;NULL;NULL;13_11_2020_13_27_25
55;3;2;noStructureExp;bars;1;639;black;black;390;330;32;1;1;v2dh8a69mhuhkqz;true;16.666;390;195;psychophysics;492627;experimental_data;NULL;NULL;NULL;NULL;13_11_2020_13_27_25
55;3;2;noStructureExp;query;1;386;black;black;390;330;49;1;1;v2dh8a69mhuhkqz;true;16.666;390;195;psychophysics;494020;experimental_data;NULL;NULL;NULL;NULL;13_11_2020_13_27_25
56;30;2;noStructureExp;bars;7;5090;purple;yellow,green,black,orange,saddlebrown,purple,blue;210,480,300,120,570,390,660;150,180,210,240,270,300,330;32;6;6;v2dh8a69mhuhkqz;true;166.682;390;195;psychophysics;501122;experimental_data;NULL;NULL;NULL;NULL;13_11_2020_13_27_25
56;30;2;noStructureExp;query;7;1342;purple;yellow,green,black,orange,saddlebrown,purple,blue;210,480,300,120,570,390,660;150,180,210,240,270,300,330;54;6;6;v2dh8a69mhuhkqz;true;16.666;390;195;psychophysics;503469;experimental_data;NULL;NULL;NULL;NULL;13_11_2020_13_27_25
57;32;2;noStructureExp;bars;7;8961;white;saddlebrown,white,blue,orange,red,green,pink;480,660,210,390,300,570,120;150,180,210,240,270,300,330;32;2;2;v2dh8a69mhuhkqz;true;166.671;390;195;psychophysics;514441;experimental_data;NULL;NULL;NULL;NULL;13_11_2020_13_27_25
57;32;2;noStructureExp;query;7;1826;white;saddlebrown,white,blue,orange,red,green,pink;480,660,210,390,300,570,120;150,180,210,240,270,300,330;50;2;2;v2dh8a69mhuhkqz;true;16.666;390;195;psychophysics;517273;experimental_data;NULL;NULL;NULL;NULL;13_11_2020_13_27_25
58;29;2;noStructureExp;bars;6;5682;purple;white,orange,blue,purple,yellow,saddlebrown;480,210,570,120,390,300;180,210,240,270,300,330;32;4;4;v2dh8a69mhuhkqz;true;166.678;390;195;psychophysics;524962;experimental_data;NULL;NULL;NULL;NULL;13_11_2020_13_27_25
58;29;2;noStructureExp;query;6;1711;purple;white,orange,blue,purple,yellow,saddlebrown;480,210,570,120,390,300;180,210,240,270,300,330;52;4;4;v2dh8a69mhuhkqz;true;16.666;390;195;psychophysics;527680;experimental_data;NULL;NULL;NULL;NULL;13_11_2020_13_27_25
59;26;2;noStructureExp;bars;6;6353;purple;orange,blue,saddlebrown,purple,white,yellow;210,570,300,390,120,480;150,180,210,240,270,300;32;4;4;v2dh8a69mhuhkqz;true;16.668;390;195;psychophysics;536042;experimental_data;NULL;NULL;NULL;NULL;13_11_2020_13_27_25
59;26;2;noStructureExp;query;6;1707;purple;orange,blue,saddlebrown,purple,white,yellow;210,570,300,390,120,480;150,180,210,240,270,300;52;4;4;v2dh8a69mhuhkqz;true;16.666;390;195;psychophysics;538754;experimental_data;NULL;NULL;NULL;NULL;13_11_2020_13_27_25
60;13;2;noStructureExp;bars;3;2287;orange;saddlebrown,yellow,orange;300,390,480;210,240,270;32;3;3;v2dh8a69mhuhkqz;true;16.666;390;195;psychophysics;543049;experimental_data;NULL;NULL;NULL;NULL;13_11_2020_13_27_25
60;13;2;noStructureExp;query;3;1200;orange;saddlebrown,yellow,orange;300,390,480;210,240,270;51;3;3;v2dh8a69mhuhkqz;true;16.666;390;195;psychophysics;545255;experimental_data;NULL;NULL;NULL;NULL;13_11_2020_13_27_25
61;16;2;noStructureExp;bars;4;2825;green;red,purple,green,pink;390,480,300,210;240,270,300,330;32;3;3;v2dh8a69mhuhkqz;true;166.691;390;195;psychophysics;550090;experimental_data;NULL;NULL;NULL;NULL;13_11_2020_13_27_25
61;16;2;noStructureExp;query;4;1199;green;red,purple,green,pink;390,480,300,210;240,270,300,330;51;3;3;v2dh8a69mhuhkqz;true;16.666;390;195;psychophysics;552294;experimental_data;NULL;NULL;NULL;NULL;13_11_2020_13_27_25
62;12;2;noStructureExp;bars;3;2127;purple;purple,yellow,red;300,480,390;270,300,330;32;1;1;v2dh8a69mhuhkqz;true;16.666;390;195;psychophysics;556433;experimental_data;NULL;NULL;NULL;NULL;13_11_2020_13_27_25
62;12;2;noStructureExp;query;3;932;purple;purple,yellow,red;300,480,390;270,300,330;49;1;1;v2dh8a69mhuhkqz;true;16.666;390;195;psychophysics;558373;experimental_data;NULL;NULL;NULL;NULL;13_11_2020_13_27_25
63;19;2;noStructureExp;bars;4;2532;pink;saddlebrown,pink,red,green;390,210,300,480;240,270,300,330;32;2;2;v2dh8a69mhuhkqz;true;16.666;390;195;psychophysics;562914;experimental_data;NULL;NULL;NULL;NULL;13_11_2020_13_27_25
63;19;2;noStructureExp;query;4;1183;pink;saddlebrown,pink,red,green;390,210,300,480;240,270,300,330;50;2;2;v2dh8a69mhuhkqz;true;16.666;390;195;psychophysics;565105;experimental_data;NULL;NULL;NULL;NULL;13_11_2020_13_27_25
64;18;2;noStructureExp;bars;4;2647;green;green,white,purple,orange;390,300,210,480;240,270,300,330;32;1;1;v2dh8a69mhuhkqz;true;16.666;390;195;psychophysics;569760;experimental_data;NULL;NULL;NULL;NULL;13_11_2020_13_27_25
64;18;2;noStructureExp;query;4;959;green;green,white,purple,orange;390,300,210,480;240,270,300,330;49;1;1;v2dh8a69mhuhkqz;true;16.666;390;195;psychophysics;571728;experimental_data;NULL;NULL;NULL;NULL;13_11_2020_13_27_25
65;24;2;noStructureExp;bars;5;4368;white;yellow,purple,saddlebrown,white,blue;570,300,210,480,390;210,240,270,300,330;32;4;4;v2dh8a69mhuhkqz;true;16.666;390;195;psychophysics;578107;experimental_data;NULL;NULL;NULL;NULL;13_11_2020_13_27_25
65;24;2;noStructureExp;query;5;1343;white;yellow,purple,saddlebrown,white,blue;570,300,210,480,390;210,240,270,300,330;52;4;4;v2dh8a69mhuhkqz;true;166.744;390;195;psychophysics;580457;experimental_data;NULL;NULL;NULL;NULL;13_11_2020_13_27_25
66;20;2;noStructureExp;bars;5;2692;red;green,red,white,black,purple;570,480,300,210,390;210,240,270,300,330;32;2;1;v2dh8a69mhuhkqz;false;16.666;390;195;psychophysics;585159;experimental_data;NULL;NULL;NULL;NULL;13_11_2020_13_27_25
66;20;2;noStructureExp;query;5;1224;red;green,red,white,black,purple;570,480,300,210,390;210,240,270,300,330;49;2;1;v2dh8a69mhuhkqz;false;16.666;390;195;psychophysics;587388;experimental_data;NULL;NULL;NULL;NULL;13_11_2020_13_27_25
67;25;2;noStructureExp;bars;6;5035;black;blue,pink,purple,black,white,yellow;210,390,120,570,300,480;180,210,240,270,300,330;32;4;4;v2dh8a69mhuhkqz;true;166.682;390;195;psychophysics;594433;experimental_data;NULL;NULL;NULL;NULL;13_11_2020_13_27_25
67;25;2;noStructureExp;query;6;2600;black;blue,pink,purple,black,white,yellow;210,390,120,570,300,480;180,210,240,270,300,330;52;4;4;v2dh8a69mhuhkqz;true;16.666;390;195;psychophysics;598039;experimental_data;NULL;NULL;NULL;NULL;13_11_2020_13_27_25
68;17;2;noStructureExp;bars;4;2472;red;purple,blue,red,green;300,390,210,480;150,180,210,240;32;3;3;v2dh8a69mhuhkqz;true;166.704;390;195;psychophysics;602522;experimental_data;NULL;NULL;NULL;NULL;13_11_2020_13_27_25
68;17;2;noStructureExp;query;4;1179;red;purple,blue,red,green;300,390,210,480;150,180,210,240;51;3;3;v2dh8a69mhuhkqz;true;16.666;390;195;psychophysics;604706;experimental_data;NULL;NULL;NULL;NULL;13_11_2020_13_27_25
69;2;2;noStructureExp;bars;1;793;yellow;yellow;390;180;32;1;1;v2dh8a69mhuhkqz;true;16.666;390;195;psychophysics;607506;experimental_data;NULL;NULL;NULL;NULL;13_11_2020_13_27_25
69;2;2;noStructureExp;query;1;443;yellow;yellow;390;180;49;1;1;v2dh8a69mhuhkqz;true;16.666;390;195;psychophysics;608955;experimental_data;NULL;NULL;NULL;NULL;13_11_2020_13_27_25
70;21;2;noStructureExp;bars;5;3328;saddlebrown;yellow,saddlebrown,blue,black,pink;210,570,390,300,480;150,180,210,240,270;32;2;2;v2dh8a69mhuhkqz;true;16.666;390;195;psychophysics;614299;experimental_data;NULL;NULL;NULL;NULL;13_11_2020_13_27_25
70;21;2;noStructureExp;query;5;1221;saddlebrown;yellow,saddlebrown,blue,black,pink;210,570,390,300,480;150,180,210,240,270;50;2;2;v2dh8a69mhuhkqz;true;16.666;390;195;psychophysics;616527;experimental_data;NULL;NULL;NULL;NULL;13_11_2020_13_27_25
NULL;NULL;0;NULL;end_of_block;NULL;54515;NULL;NULL;NULL;NULL;32;NULL;NULL;v2dh8a69mhuhkqz;NULL;NULL;NULL;NULL;html-keyboard-response;672048;experimental_data;672074;112.012;0.942857;NULL;13_11_2020_13_27_25
71;23;3;sortStructureExp;bars;5;2882;black;black,purple,green,blue,pink;570,480,210,390,300;180,210,240,270,300;32;1;1;v2dh8a69mhuhkqz;true;16.666;390;195;psychophysics;675936;experimental_data;NULL;NULL;NULL;NULL;13_11_2020_13_27_25
71;23;3;sortStructureExp;query;5;1747;black;black,purple,green,blue,pink;570,480,210,390,300;180,210,240,270,300;49;1;1;v2dh8a69mhuhkqz;true;16.666;390;195;psychophysics;678687;experimental_data;NULL;NULL;NULL;NULL;13_11_2020_13_27_25
72;16;3;sortStructureExp;bars;4;2073;purple;yellow,black,purple,green;390,480,300,210;240,270,300,330;32;3;3;v2dh8a69mhuhkqz;true;166.703;390;195;psychophysics;682767;experimental_data;NULL;NULL;NULL;NULL;13_11_2020_13_27_25
72;16;3;sortStructureExp;query;4;1266;purple;yellow,black,purple,green;390,480,300,210;240,270,300,330;51;3;3;v2dh8a69mhuhkqz;true;16.666;390;195;psychophysics;685039;experimental_data;NULL;NULL;NULL;NULL;13_11_2020_13_27_25
73;22;3;sortStructureExp;bars;5;3428;green;black,purple,green,yellow,red;480,210,570,300,390;210,240,270,300,330;32;3;3;v2dh8a69mhuhkqz;true;16.666;390;195;psychophysics;690491;experimental_data;NULL;NULL;NULL;NULL;13_11_2020_13_27_25
73;22;3;sortStructureExp;query;5;1257;green;black,purple,green,yellow,red;480,210,570,300,390;210,240,270,300,330;51;3;3;v2dh8a69mhuhkqz;true;16.676;390;195;psychophysics;692756;experimental_data;NULL;NULL;NULL;NULL;13_11_2020_13_27_25
74;8;3;sortStructureExp;bars;2;910;purple;black,purple;390,3;240,27;32;2;2;v2dh8a69mhuhkqz;true;16.666;390;195;psychophysics;695675;experimental_data;NULL;NULL;NULL;NULL;13_11_2020_13_27_25
74;8;3;sortStructureExp;query;2;476;purple;black,purple;390,3;240,27;50;2;2;v2dh8a69mhuhkqz;true;16.666;390;195;psychophysics;697156;experimental_data;NULL;NULL;NULL;NULL;13_11_2020_13_27_25
75;27;3;sortStructureExp;bars;6;4690;red;black,purple,green,red,yellow,orange;390,300,210,480,120,570;150,180,210,240,270,300;32;4;4;v2dh8a69mhuhkqz;true;166.679;390;195;psychophysics;703861;experimental_data;NULL;NULL;NULL;NULL;13_11_2020_13_27_25
75;27;3;sortStructureExp;query;6;1594;red;black,purple,green,red,yellow,orange;390,300,210,480,120,570;150,180,210,240,270,300;52;4;4;v2dh8a69mhuhkqz;true;16.666;390;195;psychophysics;706461;experimental_data;NULL;NULL;NULL;NULL;13_11_2020_13_27_25
76;6;3;sortStructureExp;bars;2;1133;black;black,purple;300,39;270,3;32;1;1;v2dh8a69mhuhkqz;true;16.666;390;195;psychophysics;709604;experimental_data;NULL;NULL;NULL;NULL;13_11_2020_13_27_25
76;6;3;sortStructureExp;query;2;696;black;black,purple;300,39;270,3;49;1;1;v2dh8a69mhuhkqz;true;16.666;390;195;psychophysics;711305;experimental_data;NULL;NULL;NULL;NULL;13_11_2020_13_27_25
77;34;3;sortStructureExp;bars;7;7270;black;pink,orange,white,yellow,black,purple,green;390,300,210,120,660,570,480;150,180,210,240,270,300,330;32;5;5;v2dh8a69mhuhkqz;true;16.666;390;195;psychophysics;720591;experimental_data;NULL;NULL;NULL;NULL;13_11_2020_13_27_25
77;34;3;sortStructureExp;query;7;1425;black;pink,orange,white,yellow,black,purple,green;390,300,210,120,660,570,480;150,180,210,240,270,300,330;53;5;5;v2dh8a69mhuhkqz;true;166.735;390;195;psychophysics;723022;experimental_data;NULL;NULL;NULL;NULL;13_11_2020_13_27_25
78;32;3;sortStructureExp;bars;7;5711;black;blue,white,black,purple,green,yellow,pink;480,660,210,390,300,570,120;150,180,210,240,270,300,330;32;3;3;v2dh8a69mhuhkqz;true;16.666;390;195;psychophysics;730741;experimental_data;NULL;NULL;NULL;NULL;13_11_2020_13_27_25
78;32;3;sortStructureExp;query;7;1249;black;blue,white,black,purple,green,yellow,pink;480,660,210,390,300,570,120;150,180,210,240,270,300,330;51;3;3;v2dh8a69mhuhkqz;true;166.743;390;195;psychophysics;732995;experimental_data;NULL;NULL;NULL;NULL;13_11_2020_13_27_25
79;10;3;sortStructureExp;bars;3;1634;green;black,purple,green;300,390,480;240,270,300;32;3;3;v2dh8a69mhuhkqz;true;16.666;390;195;psychophysics;736638;experimental_data;NULL;NULL;NULL;NULL;13_11_2020_13_27_25
79;10;3;sortStructureExp;query;3;920;green;black,purple,green;300,390,480;240,270,300;51;3;3;v2dh8a69mhuhkqz;true;16.666;390;195;psychophysics;738564;experimental_data;NULL;NULL;NULL;NULL;13_11_2020_13_27_25
80;4;3;sortStructureExp;bars;1;757;black;black;390;240;32;1;1;v2dh8a69mhuhkqz;true;16.666;390;195;psychophysics;741334;experimental_data;NULL;NULL;NULL;NULL;13_11_2020_13_27_25
80;4;3;sortStructureExp;query;1;320;black;black;390;240;49;1;1;v2dh8a69mhuhkqz;true;167.011;390;195;psychophysics;742660;experimental_data;NULL;NULL;NULL;NULL;13_11_2020_13_27_25
81;31;3;sortStructureExp;bars;7;7968;red;blue,white,yellow,black,purple,green,red;210,660,300,570,480,390,120;150,180,210,240,270,300,330;32;7;6;v2dh8a69mhuhkqz;false;166.674;390;195;psychophysics;752639;experimental_data;NULL;NULL;NULL;NULL;13_11_2020_13_27_25
81;31;3;sortStructureExp;query;7;2430;red;blue,white,yellow,black,purple,green,red;210,660,300,570,480,390,120;150,180,210,240,270,300,330;54;7;6;v2dh8a69mhuhkqz;false;16.666;390;195;psychophysics;756075;experimental_data;NULL;NULL;NULL;NULL;13_11_2020_13_27_25
82;0;3;sortStructureExp;bars;1;875;black;black;390;210;32;1;1;v2dh8a69mhuhkqz;true;16.666;390;195;psychophysics;758963;experimental_data;NULL;NULL;NULL;NULL;13_11_2020_13_27_25
82;0;3;sortStructureExp;query;1;404;black;black;390;210;49;1;1;v2dh8a69mhuhkqz;true;16.666;390;195;psychophysics;760374;experimental_data;NULL;NULL;NULL;NULL;13_11_2020_13_27_25
83;18;3;sortStructureExp;bars;4;1842;green;black,purple,green,red;390,300,210,480;240,270,300,330;32;3;3;v2dh8a69mhuhkqz;true;166.721;390;195;psychophysics;764229;experimental_data;NULL;NULL;NULL;NULL;13_11_2020_13_27_25
83;18;3;sortStructureExp;query;4;1224;green;black,purple,green,red;390,300,210,480;240,270,300,330;51;3;3;v2dh8a69mhuhkqz;true;16.666;390;195;psychophysics;766460;experimental_data;NULL;NULL;NULL;NULL;13_11_2020_13_27_25
84;1;3;sortStructureExp;bars;1;693;black;black;390;150;32;1;1;v2dh8a69mhuhkqz;true;16.666;390;195;psychophysics;769163;experimental_data;NULL;NULL;NULL;NULL;13_11_2020_13_27_25
84;1;3;sortStructureExp;query;1;422;black;black;390;150;49;1;1;v2dh8a69mhuhkqz;true;16.666;390;195;psychophysics;770595;experimental_data;NULL;NULL;NULL;NULL;13_11_2020_13_27_25
85;15;3;sortStructureExp;bars;4;3467;green;black,purple,green,pink;210,300,480,390;240,270,300,330;32;3;3;v2dh8a69mhuhkqz;true;16.666;390;195;psychophysics;776071;experimental_data;NULL;NULL;NULL;NULL;13_11_2020_13_27_25
85;15;3;sortStructureExp;query;4;1304;green;black,purple,green,pink;210,300,480,390;240,270,300,330;51;3;3;v2dh8a69mhuhkqz;true;16.666;390;195;psychophysics;778382;experimental_data;NULL;NULL;NULL;NULL;13_11_2020_13_27_25
86;13;3;sortStructureExp;bars;3;1636;green;black,purple,green;300,390,480;210,240,270;32;3;3;v2dh8a69mhuhkqz;true;16.666;390;195;psychophysics;782026;experimental_data;NULL;NULL;NULL;NULL;13_11_2020_13_27_25
86;13;3;sortStructureExp;query;3;1300;green;black,purple,green;300,390,480;210,240,270;51;3;3;v2dh8a69mhuhkqz;true;16.666;390;195;psychophysics;784331;experimental_data;NULL;NULL;NULL;NULL;13_11_2020_13_27_25
87;7;3;sortStructureExp;bars;2;923;purple;black,purple;300,39;240,27;32;2;2;v2dh8a69mhuhkqz;true;16.666;390;195;psychophysics;787260;experimental_data;NULL;NULL;NULL;NULL;13_11_2020_13_27_25
87;7;3;sortStructureExp;query;2;574;purple;black,purple;300,39;240,27;50;2;2;v2dh8a69mhuhkqz;true;16.666;390;195;psychophysics;788842;experimental_data;NULL;NULL;NULL;NULL;13_11_2020_13_27_25
88;33;3;sortStructureExp;bars;7;4511;purple;yellow,white,black,purple,green,blue,red;660,210,300,480,390,120,570;150,180,210,240,270,300,330;32;4;4;v2dh8a69mhuhkqz;true;166.684;390;195;psychophysics;795366;experimental_data;NULL;NULL;NULL;NULL;13_11_2020_13_27_25
88;33;3;sortStructureExp;query;7;2717;purple;yellow,white,black,purple,green,blue,red;660,210,300,480,390,120,570;150,180,210,240,270,300,330;52;4;4;v2dh8a69mhuhkqz;true;16.666;390;195;psychophysics;799090;experimental_data;NULL;NULL;NULL;NULL;13_11_2020_13_27_25
89;3;3;sortStructureExp;bars;1;739;black;black;390;330;32;1;1;v2dh8a69mhuhkqz;true;16.666;390;195;psychophysics;801842;experimental_data;NULL;NULL;NULL;NULL;13_11_2020_13_27_25
89;3;3;sortStructureExp;query;1;460;black;black;390;330;49;1;1;v2dh8a69mhuhkqz;true;16.666;390;195;psychophysics;803307;experimental_data;NULL;NULL;NULL;NULL;13_11_2020_13_27_25
90;21;3;sortStructureExp;bars;5;3616;black;black,purple,green,pink,red;210,570,390,300,480;150,180,210,240,270;32;1;1;v2dh8a69mhuhkqz;true;16.666;390;195;psychophysics;808938;experimental_data;NULL;NULL;NULL;NULL;13_11_2020_13_27_25
90;21;3;sortStructureExp;query;5;847;black;black,purple,green,pink,red;210,570,390,300,480;150,180,210,240,270;49;1;1;v2dh8a69mhuhkqz;true;16.666;390;195;psychophysics;810790;experimental_data;NULL;NULL;NULL;NULL;13_11_2020_13_27_25
91;19;3;sortStructureExp;bars;4;2425;purple;yellow,black,purple,green;390,210,300,480;240,270,300,330;32;3;3;v2dh8a69mhuhkqz;true;16.666;390;195;psychophysics;815229;experimental_data;NULL;NULL;NULL;NULL;13_11_2020_13_27_25
91;19;3;sortStructureExp;query;4;1221;purple;yellow,black,purple,green;390,210,300,480;240,270,300,330;51;3;3;v2dh8a69mhuhkqz;true;16.666;390;195;psychophysics;817458;experimental_data;NULL;NULL;NULL;NULL;13_11_2020_13_27_25
92;28;3;sortStructureExp;bars;6;4013;saddlebrown;white,saddlebrown,black,purple,green,orange;480,210,570,300,120,390;150,180,210,240,270,300;32;2;2;v2dh8a69mhuhkqz;true;166.685;390;195;psychophysics;823484;experimental_data;NULL;NULL;NULL;NULL;13_11_2020_13_27_25
92;28;3;sortStructureExp;query;6;1800;saddlebrown;white,saddlebrown,black,purple,green,orange;480,210,570,300,120,390;150,180,210,240,270,300;50;2;2;v2dh8a69mhuhkqz;true;16.666;390;195;psychophysics;826289;experimental_data;NULL;NULL;NULL;NULL;13_11_2020_13_27_25
93;25;3;sortStructureExp;bars;6;4217;black;black,purple,green,pink,blue,red;210,390,120,570,300,480;180,210,240,270,300,330;32;1;1;v2dh8a69mhuhkqz;true;16.666;390;195;psychophysics;832514;experimental_data;NULL;NULL;NULL;NULL;13_11_2020_13_27_25
93;25;3;sortStructureExp;query;6;1145;black;black,purple,green,pink,blue,red;210,390,120,570,300,480;180,210,240,270,300,330;49;1;1;v2dh8a69mhuhkqz;true;16.666;390;195;psychophysics;834666;experimental_data;NULL;NULL;NULL;NULL;13_11_2020_13_27_25
94;12;3;sortStructureExp;bars;3;1414;black;black,purple,green;300,480,390;270,300,330;32;1;1;v2dh8a69mhuhkqz;true;16.666;390;195;psychophysics;838089;experimental_data;NULL;NULL;NULL;NULL;13_11_2020_13_27_25
94;12;3;sortStructureExp;query;3;709;black;black,purple,green;300,480,390;270,300,330;49;1;1;v2dh8a69mhuhkqz;true;16.666;390;195;psychophysics;839803;experimental_data;NULL;NULL;NULL;NULL;13_11_2020_13_27_25
95;11;3;sortStructureExp;bars;3;1575;black;black,purple,green;300,390,480;210,240,270;32;1;1;v2dh8a69mhuhkqz;true;166.726;390;195;psychophysics;843390;experimental_data;NULL;NULL;NULL;NULL;13_11_2020_13_27_25
95;11;3;sortStructureExp;query;3;599;black;black,purple,green;300,390,480;210,240,270;49;1;1;v2dh8a69mhuhkqz;true;16.666;390;195;psychophysics;844994;experimental_data;NULL;NULL;NULL;NULL;13_11_2020_13_27_25
96;29;3;sortStructureExp;bars;6;5151;black;blue,white,orange,black,purple,green;480,210,570,120,390,300;180,210,240,270,300,330;32;4;4;v2dh8a69mhuhkqz;true;16.666;390;195;psychophysics;852154;experimental_data;NULL;NULL;NULL;NULL;13_11_2020_13_27_25
96;29;3;sortStructureExp;query;6;1705;black;blue,white,orange,black,purple,green;480,210,570,120,390,300;180,210,240,270,300,330;52;4;4;v2dh8a69mhuhkqz;true;16.666;390;195;psychophysics;854864;experimental_data;NULL;NULL;NULL;NULL;13_11_2020_13_27_25
97;30;3;sortStructureExp;bars;7;7116;yellow;yellow,orange,saddlebrown,pink,black,purple,green;210,480,300,120,570,390,660;150,180,210,240,270,300,330;32;1;1;v2dh8a69mhuhkqz;true;166.675;390;195;psychophysics;863989;experimental_data;NULL;NULL;NULL;NULL;13_11_2020_13_27_25
97;30;3;sortStructureExp;query;7;1243;yellow;yellow,orange,saddlebrown,pink,black,purple,green;210,480,300,120,570,390,660;150,180,210,240,270,300,330;49;1;1;v2dh8a69mhuhkqz;true;16.666;390;195;psychophysics;866237;experimental_data;NULL;NULL;NULL;NULL;13_11_2020_13_27_25
98;17;3;sortStructureExp;bars;4;4116;green;blue,black,purple,green;300,390,210,480;150,180,210,240;32;4;4;v2dh8a69mhuhkqz;true;16.666;390;195;psychophysics;872361;experimental_data;NULL;NULL;NULL;NULL;13_11_2020_13_27_25
98;17;3;sortStructureExp;query;4;1280;green;blue,black,purple,green;300,390,210,480;150,180,210,240;52;4;4;v2dh8a69mhuhkqz;true;16.666;390;195;psychophysics;874649;experimental_data;NULL;NULL;NULL;NULL;13_11_2020_13_27_25
99;2;3;sortStructureExp;bars;1;1007;black;black;390;180;32;1;1;v2dh8a69mhuhkqz;true;16.666;390;195;psychophysics;877663;experimental_data;NULL;NULL;NULL;NULL;13_11_2020_13_27_25
99;2;3;sortStructureExp;query;1;401;black;black;390;180;49;1;1;v2dh8a69mhuhkqz;true;16.666;390;195;psychophysics;879071;experimental_data;NULL;NULL;NULL;NULL;13_11_2020_13_27_25
100;14;3;sortStructureExp;bars;3;1334;black;black,purple,green;480,390,300;210,240,270;32;1;1;v2dh8a69mhuhkqz;true;16.666;390;195;psychophysics;882417;experimental_data;NULL;NULL;NULL;NULL;13_11_2020_13_27_25
100;14;3;sortStructureExp;query;3;562;black;black,purple,green;480,390,300;210,240,270;49;1;1;v2dh8a69mhuhkqz;true;16.666;390;195;psychophysics;883986;experimental_data;NULL;NULL;NULL;NULL;13_11_2020_13_27_25
101;20;3;sortStructureExp;bars;5;2610;red;black,purple,green,red,saddlebrown;570,480,300,210,390;210,240,270,300,330;32;4;4;v2dh8a69mhuhkqz;true;16.666;390;195;psychophysics;888605;experimental_data;NULL;NULL;NULL;NULL;13_11_2020_13_27_25
101;20;3;sortStructureExp;query;5;1581;red;black,purple,green,red,saddlebrown;570,480,300,210,390;210,240,270,300,330;52;4;4;v2dh8a69mhuhkqz;true;16.666;390;195;psychophysics;891192;experimental_data;NULL;NULL;NULL;NULL;13_11_2020_13_27_25
102;5;3;sortStructureExp;bars;2;1050;purple;black,purple;300,39;270,3;32;2;2;v2dh8a69mhuhkqz;true;16.666;390;195;psychophysics;894250;experimental_data;NULL;NULL;NULL;NULL;13_11_2020_13_27_25
102;5;3;sortStructureExp;query;2;849;purple;black,purple;300,39;270,3;50;2;2;v2dh8a69mhuhkqz;true;16.666;390;195;psychophysics;896105;experimental_data;NULL;NULL;NULL;NULL;13_11_2020_13_27_25
103;24;3;sortStructureExp;bars;5;2969;blue;black,purple,green,orange,blue;570,300,210,480,390;210,240,270,300,330;32;5;5;v2dh8a69mhuhkqz;true;16.666;390;195;psychophysics;901088;experimental_data;NULL;NULL;NULL;NULL;13_11_2020_13_27_25
103;24;3;sortStructureExp;query;5;929;blue;black,purple,green,orange,blue;570,300,210,480,390;210,240,270,300,330;53;5;5;v2dh8a69mhuhkqz;true;166.773;390;195;psychophysics;903023;experimental_data;NULL;NULL;NULL;NULL;13_11_2020_13_27_25
104;9;3;sortStructureExp;bars;2;834;purple;black,purple;300,39;240,27;32;2;2;v2dh8a69mhuhkqz;true;16.666;390;195;psychophysics;905871;experimental_data;NULL;NULL;NULL;NULL;13_11_2020_13_27_25
104;9;3;sortStructureExp;query;2;863;purple;black,purple;300,39;240,27;50;2;2;v2dh8a69mhuhkqz;true;16.666;390;195;psychophysics;907755;experimental_data;NULL;NULL;NULL;NULL;13_11_2020_13_27_25
105;26;3;sortStructureExp;bars;6;4317;blue;white,orange,black,purple,green,blue;210,570,300,390,120,480;150,180,210,240,270,300;32;6;6;v2dh8a69mhuhkqz;true;166.689;390;195;psychophysics;914088;experimental_data;NULL;NULL;NULL;NULL;13_11_2020_13_27_25
105;26;3;sortStructureExp;query;6;1845;blue;white,orange,black,purple,green,blue;210,570,300,390,120,480;150,180,210,240,270,300;54;6;6;v2dh8a69mhuhkqz;true;16.666;390;195;psychophysics;916938;experimental_data;NULL;NULL;NULL;NULL;13_11_2020_13_27_25
NULL;NULL;0;NULL;end_of_block;NULL;21100;NULL;NULL;NULL;NULL;32;NULL;NULL;v2dh8a69mhuhkqz;NULL;NULL;NULL;NULL;html-keyboard-response;939042;experimental_data;939068;156.511;0.971429;NULL;13_11_2020_13_27_25
106;16;4;noStructureCont;bars;4;2674;yellow;blue,pink,yellow,purple;210,300,390,480;240,270,300,330;32;3;3;v2dh8a69mhuhkqz;true;16.666;390;195;psychophysics;942721;experimental_data;NULL;NULL;NULL;NULL;13_11_2020_13_27_25
106;16;4;noStructureCont;query;4;1448;yellow;blue,pink,yellow,purple;210,300,390,480;240,270,300,330;51;3;3;v2dh8a69mhuhkqz;true;16.666;390;195;psychophysics;945174;experimental_data;NULL;NULL;NULL;NULL;13_11_2020_13_27_25
107;3;4;noStructureCont;bars;1;771;saddlebrown;saddlebrown;390;330;32;1;1;v2dh8a69mhuhkqz;true;16.666;390;195;psychophysics;947958;experimental_data;NULL;NULL;NULL;NULL;13_11_2020_13_27_25
107;3;4;noStructureCont;query;1;379;saddlebrown;saddlebrown;390;330;49;1;1;v2dh8a69mhuhkqz;true;166.944;390;195;psychophysics;949342;experimental_data;NULL;NULL;NULL;NULL;13_11_2020_13_27_25
108;8;4;noStructureCont;bars;2;833;orange;white,orange;300,39;240,27;32;2;2;v2dh8a69mhuhkqz;true;16.666;390;195;psychophysics;952186;experimental_data;NULL;NULL;NULL;NULL;13_11_2020_13_27_25
108;8;4;noStructureCont;query;2;718;orange;white,orange;300,39;240,27;50;2;2;v2dh8a69mhuhkqz;true;16.666;390;195;psychophysics;953910;experimental_data;NULL;NULL;NULL;NULL;13_11_2020_13_27_25
109;25;4;noStructureCont;bars;6;5355;saddlebrown;blue,pink,black,saddlebrown,green,orange;120,210,300,390,480,570;180,210,240,270,300,330;32;4;4;v2dh8a69mhuhkqz;true;166.683;390;195;psychophysics;961276;experimental_data;NULL;NULL;NULL;NULL;13_11_2020_13_27_25
109;25;4;noStructureCont;query;6;3027;saddlebrown;blue,pink,black,saddlebrown,green,orange;120,210,300,390,480,570;180,210,240,270,300,330;52;4;4;v2dh8a69mhuhkqz;true;16.666;390;195;psychophysics;965311;experimental_data;NULL;NULL;NULL;NULL;13_11_2020_13_27_25
110;5;4;noStructureCont;bars;2;985;red;black,red;300,39;270,3;32;2;2;v2dh8a69mhuhkqz;true;16.666;390;195;psychophysics;968304;experimental_data;NULL;NULL;NULL;NULL;13_11_2020_13_27_25
110;5;4;noStructureCont;query;2;913;red;black,red;300,39;270,3;50;2;2;v2dh8a69mhuhkqz;true;16.666;390;195;psychophysics;970222;experimental_data;NULL;NULL;NULL;NULL;13_11_2020_13_27_25
111;9;4;noStructureCont;bars;2;1217;saddlebrown;pink,saddlebrown;300,39;240,27;32;2;2;v2dh8a69mhuhkqz;true;16.666;390;195;psychophysics;973450;experimental_data;NULL;NULL;NULL;NULL;13_11_2020_13_27_25
111;9;4;noStructureCont;query;2;800;saddlebrown;pink,saddlebrown;300,39;240,27;50;2;2;v2dh8a69mhuhkqz;true;16.666;390;195;psychophysics;975256;experimental_data;NULL;NULL;NULL;NULL;13_11_2020_13_27_25
112;18;4;noStructureCont;bars;4;2786;yellow;yellow,pink,red,black;210,300,390,480;240,270,300,330;32;1;1;v2dh8a69mhuhkqz;true;16.669;390;195;psychophysics;980055;experimental_data;NULL;NULL;NULL;NULL;13_11_2020_13_27_25
112;18;4;noStructureCont;query;4;1080;yellow;yellow,pink,red,black;210,300,390,480;240,270,300,330;49;1;1;v2dh8a69mhuhkqz;true;16.666;390;195;psychophysics;982141;experimental_data;NULL;NULL;NULL;NULL;13_11_2020_13_27_25
113;30;4;noStructureCont;bars;7;8355;white;purple,black,saddlebrown,orange,pink,white,blue;120,210,300,390,480,570,660;150,180,210,240,270,300,330;32;6;6;v2dh8a69mhuhkqz;true;166.672;390;195;psychophysics;992506;experimental_data;NULL;NULL;NULL;NULL;13_11_2020_13_27_25
113;30;4;noStructureCont;query;7;2010;white;purple,black,saddlebrown,orange,pink,white,blue;120,210,300,390,480,570,660;150,180,210,240,270,300,330;54;6;6;v2dh8a69mhuhkqz;true;16.666;390;195;psychophysics;995521;experimental_data;NULL;NULL;NULL;NULL;13_11_2020_13_27_25
114;1;4;noStructureCont;bars;1;1097;white;white;390;150;32;1;1;v2dh8a69mhuhkqz;true;16.666;390;195;psychophysics;998629;experimental_data;NULL;NULL;NULL;NULL;13_11_2020_13_27_25
114;1;4;noStructureCont;query;1;375;white;white;390;150;49;1;1;v2dh8a69mhuhkqz;true;16.666;390;195;psychophysics;1000013;experimental_data;NULL;NULL;NULL;NULL;13_11_2020_13_27_25
115;31;4;noStructureCont;bars;7;5136;red;green,yellow,red,white,orange,pink,saddlebrown;120,210,300,390,480,570,660;150,180,210,240,270,300,330;32;3;3;v2dh8a69mhuhkqz;true;16.666;390;195;psychophysics;1007158;experimental_data;NULL;NULL;NULL;NULL;13_11_2020_13_27_25
115;31;4;noStructureCont;query;7;2042;red;green,yellow,red,white,orange,pink,saddlebrown;120,210,300,390,480,570,660;150,180,210,240,270,300,330;51;3;3;v2dh8a69mhuhkqz;true;166.712;390;195;psychophysics;1010204;experimental_data;NULL;NULL;NULL;NULL;13_11_2020_13_27_25
116;27;4;noStructureCont;bars;6;3181;yellow;white,yellow,green,red,pink,purple;120,210,300,390,480,570;150,180,210,240,270,300;32;2;2;v2dh8a69mhuhkqz;true;16.666;390;195;psychophysics;1015392;experimental_data;NULL;NULL;NULL;NULL;13_11_2020_13_27_25
116;27;4;noStructureCont;query;6;710;yellow;white,yellow,green,red,pink,purple;120,210,300,390,480,570;150,180,210,240,270,300;50;2;2;v2dh8a69mhuhkqz;true;16.666;390;195;psychophysics;1017108;experimental_data;NULL;NULL;NULL;NULL;13_11_2020_13_27_25
117;19;4;noStructureCont;bars;4;2404;white;yellow,white,blue,green;210,300,390,480;240,270,300,330;32;2;2;v2dh8a69mhuhkqz;true;166.695;390;195;psychophysics;1021522;experimental_data;NULL;NULL;NULL;NULL;13_11_2020_13_27_25
117;19;4;noStructureCont;query;4;1429;white;yellow,white,blue,green;210,300,390,480;240,270,300,330;50;2;2;v2dh8a69mhuhkqz;true;16.666;390;195;psychophysics;1023956;experimental_data;NULL;NULL;NULL;NULL;13_11_2020_13_27_25
118;26;4;noStructureCont;bars;6;3578;green;yellow,black,pink,green,blue,red;120,210,300,390,480,570;150,180,210,240,270,300;32;4;4;v2dh8a69mhuhkqz;true;166.691;390;195;psychophysics;1029549;experimental_data;NULL;NULL;NULL;NULL;13_11_2020_13_27_25
118;26;4;noStructureCont;query;6;1767;green;yellow,black,pink,green,blue,red;120,210,300,390,480,570;150,180,210,240,270,300;52;4;4;v2dh8a69mhuhkqz;true;16.666;390;195;psychophysics;1032321;experimental_data;NULL;NULL;NULL;NULL;13_11_2020_13_27_25
119;0;4;noStructureCont;bars;1;1102;purple;purple;390;210;32;1;1;v2dh8a69mhuhkqz;true;16.666;390;195;psychophysics;1035437;experimental_data;NULL;NULL;NULL;NULL;13_11_2020_13_27_25
119;0;4;noStructureCont;query;1;402;purple;purple;390;210;49;1;1;v2dh8a69mhuhkqz;true;16.666;390;195;psychophysics;1036844;experimental_data;NULL;NULL;NULL;NULL;13_11_2020_13_27_25
120;13;4;noStructureCont;bars;3;1742;black;purple,green,black;300,390,480;210,240,270;32;3;3;v2dh8a69mhuhkqz;true;16.673;390;195;psychophysics;1040596;experimental_data;NULL;NULL;NULL;NULL;13_11_2020_13_27_25
120;13;4;noStructureCont;query;3;1333;black;purple,green,black;300,390,480;210,240,270;51;3;3;v2dh8a69mhuhkqz;true;16.666;390;195;psychophysics;1042937;experimental_data;NULL;NULL;NULL;NULL;13_11_2020_13_27_25
121;32;4;noStructureCont;bars;7;3779;purple;red,purple,blue,pink,saddlebrown,green,orange;120,210,300,390,480,570,660;150,180,210,240,270,300,330;32;2;2;v2dh8a69mhuhkqz;true;16.666;390;195;psychophysics;1048725;experimental_data;NULL;NULL;NULL;NULL;13_11_2020_13_27_25
121;32;4;noStructureCont;query;7;1308;purple;red,purple,blue,pink,saddlebrown,green,orange;120,210,300,390,480,570,660;150,180,210,240,270,300,330;50;2;2;v2dh8a69mhuhkqz;true;16.666;390;195;psychophysics;1051038;experimental_data;NULL;NULL;NULL;NULL;13_11_2020_13_27_25
122;23;4;noStructureCont;bars;5;4781;blue;purple,yellow,white,orange,blue;210,300,390,480,570;180,210,240,270,300;32;5;5;v2dh8a69mhuhkqz;true;16.666;390;195;psychophysics;1057828;experimental_data;NULL;NULL;NULL;NULL;13_11_2020_13_27_25
122;23;4;noStructureCont;query;5;1468;blue;purple,yellow,white,orange,blue;210,300,390,480,570;180,210,240,270,300;53;5;5;v2dh8a69mhuhkqz;true;166.721;390;195;psychophysics;1060305;experimental_data;NULL;NULL;NULL;NULL;13_11_2020_13_27_25
123;14;4;noStructureCont;bars;3;1803;pink;pink,red,orange;300,390,480;210,240,270;32;1;1;v2dh8a69mhuhkqz;true;16.666;390;195;psychophysics;1064116;experimental_data;NULL;NULL;NULL;NULL;13_11_2020_13_27_25
123;14;4;noStructureCont;query;3;1458;pink;pink,red,orange;300,390,480;210,240,270;49;1;1;v2dh8a69mhuhkqz;true;16.666;390;195;psychophysics;1066580;experimental_data;NULL;NULL;NULL;NULL;13_11_2020_13_27_25
124;12;4;noStructureCont;bars;3;1466;black;black,white,orange;300,390,480;270,300,330;32;1;1;v2dh8a69mhuhkqz;true;166.733;390;195;psychophysics;1070054;experimental_data;NULL;NULL;NULL;NULL;13_11_2020_13_27_25
124;12;4;noStructureCont;query;3;667;black;black,white,orange;300,390,480;270,300,330;49;1;1;v2dh8a69mhuhkqz;true;16.666;390;195;psychophysics;1071727;experimental_data;NULL;NULL;NULL;NULL;13_11_2020_13_27_25
125;6;4;noStructureCont;bars;2;800;green;white,green;300,39;270,3;32;2;2;v2dh8a69mhuhkqz;true;16.666;390;195;psychophysics;1074539;experimental_data;NULL;NULL;NULL;NULL;13_11_2020_13_27_25
125;6;4;noStructureCont;query;2;617;green;white,green;300,39;270,3;50;2;2;v2dh8a69mhuhkqz;true;16.666;390;195;psychophysics;1076164;experimental_data;NULL;NULL;NULL;NULL;13_11_2020_13_27_25
126;2;4;noStructureCont;bars;1;603;blue;blue;390;180;32;1;1;v2dh8a69mhuhkqz;true;16.666;390;195;psychophysics;1078778;experimental_data;NULL;NULL;NULL;NULL;13_11_2020_13_27_25
126;2;4;noStructureCont;query;1;368;blue;blue;390;180;49;1;1;v2dh8a69mhuhkqz;true;16.666;390;195;psychophysics;1080156;experimental_data;NULL;NULL;NULL;NULL;13_11_2020_13_27_25
127;4;4;noStructureCont;bars;1;593;black;black;390;240;32;1;1;v2dh8a69mhuhkqz;true;16.666;390;195;psychophysics;1082763;experimental_data;NULL;NULL;NULL;NULL;13_11_2020_13_27_25
127;4;4;noStructureCont;query;1;374;black;black;390;240;49;1;1;v2dh8a69mhuhkqz;true;16.666;390;195;psychophysics;1084147;experimental_data;NULL;NULL;NULL;NULL;13_11_2020_13_27_25
128;21;4;noStructureCont;bars;5;2662;yellow;black,yellow,red,green,white;210,300,390,480,570;150,180,210,240,270;32;2;2;v2dh8a69mhuhkqz;true;16.666;390;195;psychophysics;1088820;experimental_data;NULL;NULL;NULL;NULL;13_11_2020_13_27_25
128;21;4;noStructureCont;query;5;1083;yellow;black,yellow,red,green,white;210,300,390,480,570;150,180,210,240,270;50;2;2;v2dh8a69mhuhkqz;true;16.666;390;195;psychophysics;1090908;experimental_data;NULL;NULL;NULL;NULL;13_11_2020_13_27_25
129;29;4;noStructureCont;bars;6;2901;pink;red,orange,blue,pink,saddlebrown,yellow;120,210,300,390,480,570;180,210,240,270,300,330;32;4;4;v2dh8a69mhuhkqz;true;16.666;390;195;psychophysics;1095822;experimental_data;NULL;NULL;NULL;NULL;13_11_2020_13_27_25
129;29;4;noStructureCont;query;6;2151;pink;red,orange,blue,pink,saddlebrown,yellow;120,210,300,390,480,570;180,210,240,270,300,330;52;4;4;v2dh8a69mhuhkqz;true;16.666;390;195;psychophysics;1098978;experimental_data;NULL;NULL;NULL;NULL;13_11_2020_13_27_25
130;10;4;noStructureCont;bars;3;1668;white;white,saddlebrown,yellow;300,390,480;240,270,300;32;1;1;v2dh8a69mhuhkqz;true;16.666;390;195;psychophysics;1102655;experimental_data;NULL;NULL;NULL;NULL;13_11_2020_13_27_25
130;10;4;noStructureCont;query;3;1011;white;white,saddlebrown,yellow;300,390,480;240,270,300;49;1;1;v2dh8a69mhuhkqz;true;16.666;390;195;psychophysics;1104671;experimental_data;NULL;NULL;NULL;NULL;13_11_2020_13_27_25
131;22;4;noStructureCont;bars;5;2994;white;orange,saddlebrown,pink,green,white;210,300,390,480,570;210,240,270,300,330;32;5;5;v2dh8a69mhuhkqz;true;16.666;390;195;psychophysics;1109676;experimental_data;NULL;NULL;NULL;NULL;13_11_2020_13_27_25
131;22;4;noStructureCont;query;5;1016;white;orange,saddlebrown,pink,green,white;210,300,390,480,570;210,240,270,300,330;53;5;5;v2dh8a69mhuhkqz;true;16.666;390;195;psychophysics;1111698;experimental_data;NULL;NULL;NULL;NULL;13_11_2020_13_27_25
132;7;4;noStructureCont;bars;2;1133;pink;pink,orange;300,39;240,27;32;1;1;v2dh8a69mhuhkqz;true;16.666;390;195;psychophysics;1114839;experimental_data;NULL;NULL;NULL;NULL;13_11_2020_13_27_25
132;7;4;noStructureCont;query;2;629;pink;pink,orange;300,39;240,27;49;1;1;v2dh8a69mhuhkqz;true;16.666;390;195;psychophysics;1116474;experimental_data;NULL;NULL;NULL;NULL;13_11_2020_13_27_25
133;17;4;noStructureCont;bars;4;1989;blue;yellow,pink,blue,orange;210,300,390,480;150,180,210,240;32;3;3;v2dh8a69mhuhkqz;true;166.712;390;195;psychophysics;1120476;experimental_data;NULL;NULL;NULL;NULL;13_11_2020_13_27_25
133;17;4;noStructureCont;query;4;1288;blue;yellow,pink,blue,orange;210,300,390,480;150,180,210,240;51;3;3;v2dh8a69mhuhkqz;true;16.666;390;195;psychophysics;1122770;experimental_data;NULL;NULL;NULL;NULL;13_11_2020_13_27_25
134;11;4;noStructureCont;bars;3;1798;pink;pink,white,purple;300,390,480;210,240,270;32;1;1;v2dh8a69mhuhkqz;true;16.666;390;195;psychophysics;1126579;experimental_data;NULL;NULL;NULL;NULL;13_11_2020_13_27_25
134;11;4;noStructureCont;query;3;1002;pink;pink,white,purple;300,390,480;210,240,270;49;1;1;v2dh8a69mhuhkqz;true;16.666;390;195;psychophysics;1128588;experimental_data;NULL;NULL;NULL;NULL;13_11_2020_13_27_25
135;15;4;noStructureCont;bars;4;2550;white;orange,yellow,white,green;210,300,390,480;240,270,300,330;32;3;3;v2dh8a69mhuhkqz;true;16.666;390;195;psychophysics;1133146;experimental_data;NULL;NULL;NULL;NULL;13_11_2020_13_27_25
135;15;4;noStructureCont;query;4;1269;white;orange,yellow,white,green;210,300,390,480;240,270,300,330;51;3;3;v2dh8a69mhuhkqz;true;16.666;390;195;psychophysics;1135421;experimental_data;NULL;NULL;NULL;NULL;13_11_2020_13_27_25
136;33;4;noStructureCont;bars;7;5116;orange;green,pink,orange,red,blue,saddlebrown,white;120,210,300,390,480,570,660;150,180,210,240,270,300,330;32;3;3;v2dh8a69mhuhkqz;true;16.668;390;195;psychophysics;1142546;experimental_data;NULL;NULL;NULL;NULL;13_11_2020_13_27_25
136;33;4;noStructureCont;query;7;1544;orange;green,pink,orange,red,blue,saddlebrown,white;120,210,300,390,480,570,660;150,180,210,240,270,300,330;51;3;3;v2dh8a69mhuhkqz;true;16.666;390;195;psychophysics;1145097;experimental_data;NULL;NULL;NULL;NULL;13_11_2020_13_27_25
137;28;4;noStructureCont;bars;6;2673;white;red,black,green,blue,white,saddlebrown;120,210,300,390,480,570;150,180,210,240,270,300;32;5;5;v2dh8a69mhuhkqz;true;16.666;390;195;psychophysics;1149778;experimental_data;NULL;NULL;NULL;NULL;13_11_2020_13_27_25
137;28;4;noStructureCont;query;6;2073;white;red,black,green,blue,white,saddlebrown;120,210,300,390,480,570;150,180,210,240,270,300;53;5;5;v2dh8a69mhuhkqz;true;16.666;390;195;psychophysics;1152858;experimental_data;NULL;NULL;NULL;NULL;13_11_2020_13_27_25
138;20;4;noStructureCont;bars;5;4539;blue;purple,blue,green,black,saddlebrown;210,300,390,480,570;210,240,270,300,330;32;2;2;v2dh8a69mhuhkqz;true;16.666;390;195;psychophysics;1159410;experimental_data;NULL;NULL;NULL;NULL;13_11_2020_13_27_25
138;20;4;noStructureCont;query;5;1416;blue;purple,blue,green,black,saddlebrown;210,300,390,480,570;210,240,270,300,330;50;2;2;v2dh8a69mhuhkqz;true;16.666;390;195;psychophysics;1161835;experimental_data;NULL;NULL;NULL;NULL;13_11_2020_13_27_25
139;34;4;noStructureCont;bars;7;7428;orange;purple,pink,black,saddlebrown,orange,red,green;120,210,300,390,480,570,660;150,180,210,240,270,300,330;32;5;5;v2dh8a69mhuhkqz;true;166.674;390;195;psychophysics;1171272;experimental_data;NULL;NULL;NULL;NULL;13_11_2020_13_27_25
139;34;4;noStructureCont;query;7;3558;orange;purple,pink,black,saddlebrown,orange,red,green;120,210,300,390,480,570,660;150,180,210,240,270,300,330;53;5;5;v2dh8a69mhuhkqz;true;16.666;390;195;psychophysics;1175836;experimental_data;NULL;NULL;NULL;NULL;13_11_2020_13_27_25
140;24;4;noStructureCont;bars;5;2928;pink;black,red,saddlebrown,pink,white;210,300,390,480,570;210,240,270,300,330;32;4;4;v2dh8a69mhuhkqz;true;166.689;390;195;psychophysics;1180772;experimental_data;NULL;NULL;NULL;NULL;13_11_2020_13_27_25
140;24;4;noStructureCont;query;5;1628;pink;black,red,saddlebrown,pink,white;210,300,390,480,570;210,240,270,300,330;52;4;4;v2dh8a69mhuhkqz;true;16.666;390;195;psychophysics;1183405;experimental_data;NULL;NULL;NULL;NULL;13_11_2020_13_27_25
NULL;NULL;0;NULL;end_of_block;NULL;7837;NULL;NULL;NULL;NULL;32;NULL;NULL;v2dh8a69mhuhkqz;NULL;NULL;NULL;NULL;html-keyboard-response;1192249;experimental_data;1192275;198.713;1;NULL;13_11_2020_13_27_25
141;5;5;queryStructureCont;bars;2;932;red;orange,red;300,39;270,3;32;2;2;v2dh8a69mhuhkqz;true;16.666;390;195;psychophysics;1194187;experimental_data;NULL;NULL;NULL;NULL;13_11_2020_13_27_25
141;5;5;queryStructureCont;query;2;735;red;orange,red;300,39;270,3;50;2;2;v2dh8a69mhuhkqz;true;16.666;390;195;psychophysics;1195927;experimental_data;NULL;NULL;NULL;NULL;13_11_2020_13_27_25
142;6;5;queryStructureCont;bars;2;613;purple;green,purple;300,39;270,3;32;2;2;v2dh8a69mhuhkqz;true;16.666;390;195;psychophysics;1198553;experimental_data;NULL;NULL;NULL;NULL;13_11_2020_13_27_25
142;6;5;queryStructureCont;query;2;595;purple;green,purple;300,39;270,3;50;2;2;v2dh8a69mhuhkqz;true;16.666;390;195;psychophysics;1200154;experimental_data;NULL;NULL;NULL;NULL;13_11_2020_13_27_25
143;20;5;queryStructureCont;bars;5;2241;purple;red,saddlebrown,blue,orange,purple;210,300,390,480,570;210,240,270,300,330;32;5;5;v2dh8a69mhuhkqz;true;166.707;390;195;psychophysics;1204403;experimental_data;NULL;NULL;NULL;NULL;13_11_2020_13_27_25
143;20;5;queryStructureCont;query;5;913;purple;red,saddlebrown,blue,orange,purple;210,300,390,480,570;210,240,270,300,330;53;5;5;v2dh8a69mhuhkqz;true;16.666;390;195;psychophysics;1206321;experimental_data;NULL;NULL;NULL;NULL;13_11_2020_13_27_25
144;15;5;queryStructureCont;bars;4;1904;orange;white,blue,yellow,orange;210,300,390,480;240,270,300,330;32;4;4;v2dh8a69mhuhkqz;true;16.666;390;195;psychophysics;1210240;experimental_data;NULL;NULL;NULL;NULL;13_11_2020_13_27_25
144;15;5;queryStructureCont;query;4;1258;orange;white,blue,yellow,orange;210,300,390,480;240,270,300,330;52;4;4;v2dh8a69mhuhkqz;true;166.726;390;195;psychophysics;1212503;experimental_data;NULL;NULL;NULL;NULL;13_11_2020_13_27_25
145;34;5;queryStructureCont;bars;7;3584;red;green,pink,orange,purple,black,saddlebrown,red;120,210,300,390,480,570,660;150,180,210,240,270,300,330;32;7;7;v2dh8a69mhuhkqz;true;16.666;390;195;psychophysics;1218096;experimental_data;NULL;NULL;NULL;NULL;13_11_2020_13_27_25
145;34;5;queryStructureCont;query;7;1250;red;green,pink,orange,purple,black,saddlebrown,red;120,210,300,390,480,570,660;150,180,210,240,270,300,330;55;7;7;v2dh8a69mhuhkqz;true;16.666;390;195;psychophysics;1220354;experimental_data;NULL;NULL;NULL;NULL;13_11_2020_13_27_25
146;25;5;queryStructureCont;bars;6;4472;black;purple,green,white,red,yellow,black;120,210,300,390,480,570;180,210,240,270,300,330;32;6;6;v2dh8a69mhuhkqz;true;166.688;390;195;psychophysics;1226835;experimental_data;NULL;NULL;NULL;NULL;13_11_2020_13_27_25
146;25;5;queryStructureCont;query;6;2448;black;purple,green,white,red,yellow,black;120,210,300,390,480,570;180,210,240,270,300,330;54;6;6;v2dh8a69mhuhkqz;true;16.666;390;195;psychophysics;1230289;experimental_data;NULL;NULL;NULL;NULL;13_11_2020_13_27_25
147;18;5;queryStructureCont;bars;4;2441;saddlebrown;white,orange,blue,saddlebrown;210,300,390,480;240,270,300,330;32;4;4;v2dh8a69mhuhkqz;true;16.67;390;195;psychophysics;1234743;experimental_data;NULL;NULL;NULL;NULL;13_11_2020_13_27_25
147;18;5;queryStructureCont;query;4;1266;saddlebrown;white,orange,blue,saddlebrown;210,300,390,480;240,270,300,330;52;4;4;v2dh8a69mhuhkqz;true;16.666;390;195;psychophysics;1237015;experimental_data;NULL;NULL;NULL;NULL;13_11_2020_13_27_25
148;1;5;queryStructureCont;bars;1;747;red;red;390;150;32;1;1;v2dh8a69mhuhkqz;true;16.666;390;195;psychophysics;1239770;experimental_data;NULL;NULL;NULL;NULL;13_11_2020_13_27_25
148;1;5;queryStructureCont;query;1;379;red;red;390;150;49;1;1;v2dh8a69mhuhkqz;true;16.666;390;195;psychophysics;1241155;experimental_data;NULL;NULL;NULL;NULL;13_11_2020_13_27_25
149;16;5;queryStructureCont;bars;4;2416;orange;purple,blue,red,orange;210,300,390,480;240,270,300,330;32;4;4;v2dh8a69mhuhkqz;true;16.666;390;195;psychophysics;1245585;experimental_data;NULL;NULL;NULL;NULL;13_11_2020_13_27_25
149;16;5;queryStructureCont;query;4;1145;orange;purple,blue,red,orange;210,300,390,480;240,270,300,330;52;4;4;v2dh8a69mhuhkqz;true;16.666;390;195;psychophysics;1247736;experimental_data;NULL;NULL;NULL;NULL;13_11_2020_13_27_25
150;28;5;queryStructureCont;bars;6;3273;pink;yellow,red,purple,white,orange,pink;120,210,300,390,480,570;150,180,210,240,270,300;32;6;6;v2dh8a69mhuhkqz;true;166.696;390;195;psychophysics;1253016;experimental_data;NULL;NULL;NULL;NULL;13_11_2020_13_27_25
150;28;5;queryStructureCont;query;6;3505;pink;yellow,red,purple,white,orange,pink;120,210,300,390,480,570;150,180,210,240,270,300;54;6;6;v2dh8a69mhuhkqz;true;16.666;390;195;psychophysics;1257527;experimental_data;NULL;NULL;NULL;NULL;13_11_2020_13_27_25
151;11;5;queryStructureCont;bars;3;1417;white;saddlebrown,blue,white;300,390,480;210,240,270;32;3;3;v2dh8a69mhuhkqz;true;16.666;390;195;psychophysics;1260953;experimental_data;NULL;NULL;NULL;NULL;13_11_2020_13_27_25
151;11;5;queryStructureCont;query;3;847;white;saddlebrown,blue,white;300,390,480;210,240,270;51;3;3;v2dh8a69mhuhkqz;true;166.796;390;195;psychophysics;1262806;experimental_data;NULL;NULL;NULL;NULL;13_11_2020_13_27_25
152;8;5;queryStructureCont;bars;2;875;red;pink,red;300,39;240,27;32;2;2;v2dh8a69mhuhkqz;true;16.666;390;195;psychophysics;1265695;experimental_data;NULL;NULL;NULL;NULL;13_11_2020_13_27_25
152;8;5;queryStructureCont;query;2;1087;red;pink,red;300,39;240,27;50;2;2;v2dh8a69mhuhkqz;true;16.666;390;195;psychophysics;1267790;experimental_data;NULL;NULL;NULL;NULL;13_11_2020_13_27_25
153;3;5;queryStructureCont;bars;1;792;green;green;390;330;32;1;1;v2dh8a69mhuhkqz;true;16.666;390;195;psychophysics;1270590;experimental_data;NULL;NULL;NULL;NULL;13_11_2020_13_27_25
153;3;5;queryStructureCont;query;1;393;green;green;390;330;49;1;1;v2dh8a69mhuhkqz;true;16.666;390;195;psychophysics;1271989;experimental_data;NULL;NULL;NULL;NULL;13_11_2020_13_27_25
154;13;5;queryStructureCont;bars;3;968;green;pink,white,green;300,390,480;210,240,270;32;3;3;v2dh8a69mhuhkqz;true;16.666;390;195;psychophysics;1274969;experimental_data;NULL;NULL;NULL;NULL;13_11_2020_13_27_25
154;13;5;queryStructureCont;query;3;1090;green;pink,white,green;300,390,480;210,240,270;51;3;3;v2dh8a69mhuhkqz;true;16.666;390;195;psychophysics;1277065;experimental_data;NULL;NULL;NULL;NULL;13_11_2020_13_27_25
155;24;5;queryStructureCont;bars;5;2447;red;black,purple,blue,pink,red;210,300,390,480,570;210,240,270,300,330;32;5;5;v2dh8a69mhuhkqz;true;16.666;390;195;psychophysics;1281520;experimental_data;NULL;NULL;NULL;NULL;13_11_2020_13_27_25
155;24;5;queryStructureCont;query;5;999;red;black,purple,blue,pink,red;210,300,390,480,570;210,240,270,300,330;53;5;5;v2dh8a69mhuhkqz;true;166.765;390;195;psychophysics;1283526;experimental_data;NULL;NULL;NULL;NULL;13_11_2020_13_27_25
156;2;5;queryStructureCont;bars;1;632;pink;pink;390;180;32;1;1;v2dh8a69mhuhkqz;true;16.666;390;195;psychophysics;1286168;experimental_data;NULL;NULL;NULL;NULL;13_11_2020_13_27_25
156;2;5;queryStructureCont;query;1;364;pink;pink;390;180;49;1;1;v2dh8a69mhuhkqz;true;16.666;390;195;psychophysics;1287538;experimental_data;NULL;NULL;NULL;NULL;13_11_2020_13_27_25
157;12;5;queryStructureCont;bars;3;1034;saddlebrown;pink,green,saddlebrown;300,390,480;270,300,330;32;3;3;v2dh8a69mhuhkqz;true;16.666;390;195;psychophysics;1290585;experimental_data;NULL;NULL;NULL;NULL;13_11_2020_13_27_25
157;12;5;queryStructureCont;query;3;1163;saddlebrown;pink,green,saddlebrown;300,390,480;270,300,330;51;3;3;v2dh8a69mhuhkqz;true;16.666;390;195;psychophysics;1292754;experimental_data;NULL;NULL;NULL;NULL;13_11_2020_13_27_25
158;30;5;queryStructureCont;bars;7;3647;blue;yellow,purple,black,white,saddlebrown,green,blue;120,210,300,390,480,570,660;150,180,210,240,270,300,330;32;7;7;v2dh8a69mhuhkqz;true;16.666;390;195;psychophysics;1298407;experimental_data;NULL;NULL;NULL;NULL;13_11_2020_13_27_25
158;30;5;queryStructureCont;query;7;1052;blue;yellow,purple,black,white,saddlebrown,green,blue;120,210,300,390,480,570,660;150,180,210,240,270,300,330;55;7;7;v2dh8a69mhuhkqz;true;16.666;390;195;psychophysics;1300465;experimental_data;NULL;NULL;NULL;NULL;13_11_2020_13_27_25
159;7;5;queryStructureCont;bars;2;779;purple;red,purple;300,39;240,27;32;2;2;v2dh8a69mhuhkqz;true;16.666;390;195;psychophysics;1303254;experimental_data;NULL;NULL;NULL;NULL;13_11_2020_13_27_25
159;7;5;queryStructureCont;query;2;676;purple;red,purple;300,39;240,27;50;2;2;v2dh8a69mhuhkqz;true;16.666;390;195;psychophysics;1304936;experimental_data;NULL;NULL;NULL;NULL;13_11_2020_13_27_25
160;32;5;queryStructureCont;bars;7;2685;black;pink,blue,green,red,white,saddlebrown,black;120,210,300,390,480,570,660;150,180,210,240,270,300,330;32;7;7;v2dh8a69mhuhkqz;true;16.666;390;195;psychophysics;1309630;experimental_data;NULL;NULL;NULL;NULL;13_11_2020_13_27_25
160;32;5;queryStructureCont;query;7;1127;black;pink,blue,green,red,white,saddlebrown,black;120,210,300,390,480,570,660;150,180,210,240,270,300,330;55;7;7;v2dh8a69mhuhkqz;true;16.666;390;195;psychophysics;1311765;experimental_data;NULL;NULL;NULL;NULL;13_11_2020_13_27_25
161;9;5;queryStructureCont;bars;2;763;black;saddlebrown,black;300,39;240,27;32;2;2;v2dh8a69mhuhkqz;true;166.798;390;195;psychophysics;1314536;experimental_data;NULL;NULL;NULL;NULL;13_11_2020_13_27_25
161;9;5;queryStructureCont;query;2;1335;black;saddlebrown,black;300,39;240,27;50;2;2;v2dh8a69mhuhkqz;true;16.666;390;195;psychophysics;1316877;experimental_data;NULL;NULL;NULL;NULL;13_11_2020_13_27_25
162;19;5;queryStructureCont;bars;4;3200;green;blue,yellow,purple,green;210,300,390,480;240,270,300,330;32;4;4;v2dh8a69mhuhkqz;true;16.666;390;195;psychophysics;1322087;experimental_data;NULL;NULL;NULL;NULL;13_11_2020_13_27_25
162;19;5;queryStructureCont;query;4;1146;green;blue,yellow,purple,green;210,300,390,480;240,270,300,330;52;4;4;v2dh8a69mhuhkqz;true;166.771;390;195;psychophysics;1324239;experimental_data;NULL;NULL;NULL;NULL;13_11_2020_13_27_25
163;29;5;queryStructureCont;bars;6;4241;purple;blue,orange,green,red,pink,purple;120,210,300,390,480,570;180,210,240,270,300,330;32;6;5;v2dh8a69mhuhkqz;false;16.666;390;195;psychophysics;1330486;experimental_data;NULL;NULL;NULL;NULL;13_11_2020_13_27_25
163;29;5;queryStructureCont;query;6;1674;purple;blue,orange,green,red,pink,purple;120,210,300,390,480,570;180,210,240,270,300,330;53;6;5;v2dh8a69mhuhkqz;false;16.666;390;195;psychophysics;1333166;experimental_data;NULL;NULL;NULL;NULL;13_11_2020_13_27_25
164;21;5;queryStructureCont;bars;5;4630;green;black,pink,white,orange,green;210,300,390,480,570;150,180,210,240,270;32;5;5;v2dh8a69mhuhkqz;true;16.666;390;195;psychophysics;1339804;experimental_data;NULL;NULL;NULL;NULL;13_11_2020_13_27_25
164;21;5;queryStructureCont;query;5;1188;green;black,pink,white,orange,green;210,300,390,480,570;150,180,210,240,270;53;5;5;v2dh8a69mhuhkqz;true;16.666;390;195;psychophysics;1341997;experimental_data;NULL;NULL;NULL;NULL;13_11_2020_13_27_25
165;27;5;queryStructureCont;bars;6;4735;yellow;blue,orange,green,pink,saddlebrown,yellow;120,210,300,390,480,570;150,180,210,240,270,300;32;6;6;v2dh8a69mhuhkqz;true;166.681;390;195;psychophysics;1348741;experimental_data;NULL;NULL;NULL;NULL;13_11_2020_13_27_25
165;27;5;queryStructureCont;query;6;1651;yellow;blue,orange,green,pink,saddlebrown,yellow;120,210,300,390,480,570;150,180,210,240,270,300;54;6;6;v2dh8a69mhuhkqz;true;16.666;390;195;psychophysics;1351397;experimental_data;NULL;NULL;NULL;NULL;13_11_2020_13_27_25
166;10;5;queryStructureCont;bars;3;1984;black;saddlebrown,green,black;300,390,480;240,270,300;32;3;3;v2dh8a69mhuhkqz;true;166.713;390;195;psychophysics;1355389;experimental_data;NULL;NULL;NULL;NULL;13_11_2020_13_27_25
166;10;5;queryStructureCont;query;3;1201;black;saddlebrown,green,black;300,390,480;240,270,300;51;3;3;v2dh8a69mhuhkqz;true;16.666;390;195;psychophysics;1357596;experimental_data;NULL;NULL;NULL;NULL;13_11_2020_13_27_25
167;33;5;queryStructureCont;bars;7;6650;blue;black,green,orange,purple,red,saddlebrown,blue;120,210,300,390,480,570,660;150,180,210,240,270,300,330;32;7;7;v2dh8a69mhuhkqz;true;166.676;390;195;psychophysics;1366255;experimental_data;NULL;NULL;NULL;NULL;13_11_2020_13_27_25
167;33;5;queryStructureCont;query;7;1096;blue;black,green,orange,purple,red,saddlebrown,blue;120,210,300,390,480,570,660;150,180,210,240,270,300,330;55;7;7;v2dh8a69mhuhkqz;true;16.666;390;195;psychophysics;1368356;experimental_data;NULL;NULL;NULL;NULL;13_11_2020_13_27_25
168;23;5;queryStructureCont;bars;5;2839;red;black,white,green,yellow,red;210,300,390,480,570;180,210,240,270,300;32;5;5;v2dh8a69mhuhkqz;true;16.666;390;195;psychophysics;1373205;experimental_data;NULL;NULL;NULL;NULL;13_11_2020_13_27_25
168;23;5;queryStructureCont;query;5;1528;red;black,white,green,yellow,red;210,300,390,480,570;180,210,240,270,300;53;5;5;v2dh8a69mhuhkqz;true;166.725;390;195;psychophysics;1375739;experimental_data;NULL;NULL;NULL;NULL;13_11_2020_13_27_25
169;22;5;queryStructureCont;bars;5;2983;saddlebrown;white,blue,yellow,purple,saddlebrown;210,300,390,480,570;210,240,270,300,330;32;5;5;v2dh8a69mhuhkqz;true;16.666;390;195;psychophysics;1380735;experimental_data;NULL;NULL;NULL;NULL;13_11_2020_13_27_25
169;22;5;queryStructureCont;query;5;1239;saddlebrown;white,blue,yellow,purple,saddlebrown;210,300,390,480,570;210,240,270,300,330;53;5;5;v2dh8a69mhuhkqz;true;16.666;390;195;psychophysics;1382980;experimental_data;NULL;NULL;NULL;NULL;13_11_2020_13_27_25
170;17;5;queryStructureCont;bars;4;2482;saddlebrown;orange,yellow,black,saddlebrown;210,300,390,480;150,180,210,240;32;4;4;v2dh8a69mhuhkqz;true;16.666;390;195;psychophysics;1387470;experimental_data;NULL;NULL;NULL;NULL;13_11_2020_13_27_25
170;17;5;queryStructureCont;query;4;1177;saddlebrown;orange,yellow,black,saddlebrown;210,300,390,480;150,180,210,240;52;4;4;v2dh8a69mhuhkqz;true;16.666;390;195;psychophysics;1389653;experimental_data;NULL;NULL;NULL;NULL;13_11_2020_13_27_25
171;4;5;queryStructureCont;bars;1;783;purple;purple;390;240;32;1;1;v2dh8a69mhuhkqz;true;16.666;390;195;psychophysics;1392444;experimental_data;NULL;NULL;NULL;NULL;13_11_2020_13_27_25
171;4;5;queryStructureCont;query;1;343;purple;purple;390;240;49;1;1;v2dh8a69mhuhkqz;true;16.666;390;195;psychophysics;1393795;experimental_data;NULL;NULL;NULL;NULL;13_11_2020_13_27_25
172;0;5;queryStructureCont;bars;1;632;pink;pink;390;210;32;1;1;v2dh8a69mhuhkqz;true;16.666;390;195;psychophysics;1396437;experimental_data;NULL;NULL;NULL;NULL;13_11_2020_13_27_25
172;0;5;queryStructureCont;query;1;414;pink;pink;390;210;49;1;1;v2dh8a69mhuhkqz;true;16.666;390;195;psychophysics;1397859;experimental_data;NULL;NULL;NULL;NULL;13_11_2020_13_27_25
173;14;5;queryStructureCont;bars;3;1693;black;green,saddlebrown,black;300,390,480;210,240,270;32;3;3;v2dh8a69mhuhkqz;true;16.666;390;195;psychophysics;1401563;experimental_data;NULL;NULL;NULL;NULL;13_11_2020_13_27_25
173;14;5;queryStructureCont;query;3;817;black;green,saddlebrown,black;300,390,480;210,240,270;51;3;3;v2dh8a69mhuhkqz;true;16.666;390;195;psychophysics;1403388;experimental_data;NULL;NULL;NULL;NULL;13_11_2020_13_27_25
174;31;5;queryStructureCont;bars;7;3689;green;blue,purple,yellow,pink,saddlebrown,black,green;120,210,300,390,480,570,660;150,180,210,240,270,300,330;32;7;7;v2dh8a69mhuhkqz;true;16.666;390;195;psychophysics;1409091;experimental_data;NULL;NULL;NULL;NULL;13_11_2020_13_27_25
174;31;5;queryStructureCont;query;7;1594;green;blue,purple,yellow,pink,saddlebrown,black,green;120,210,300,390,480,570,660;150,180,210,240,270,300,330;55;7;7;v2dh8a69mhuhkqz;true;16.666;390;195;psychophysics;1411690;experimental_data;NULL;NULL;NULL;NULL;13_11_2020_13_27_25
175;26;5;queryStructureCont;bars;6;4941;black;yellow,green,pink,white,red,black;120,210,300,390,480,570;150,180,210,240,270,300;32;6;6;v2dh8a69mhuhkqz;true;166.683;390;195;psychophysics;1418644;experimental_data;NULL;NULL;NULL;NULL;13_11_2020_13_27_25
175;26;5;queryStructureCont;query;6;1833;black;yellow,green,pink,white,red,black;120,210,300,390,480,570;150,180,210,240,270,300;54;6;6;v2dh8a69mhuhkqz;true;16.666;390;195;psychophysics;1421484;experimental_data;NULL;NULL;NULL;NULL;13_11_2020_13_27_25
NULL;NULL;0;NULL;end_of_block;NULL;5257;NULL;NULL;NULL;NULL;32;NULL;NULL;v2dh8a69mhuhkqz;NULL;NULL;NULL;NULL;html-keyboard-response;1427747;experimental_data;1427773;237.962;0.971429;NULL;13_11_2020_13_27_25
176;22;6;sortStructureCont;bars;5;2556;red;green,blue,red,orange,white;210,300,390,480,570;210,240,270,300,330;32;3;3;v2dh8a69mhuhkqz;true;16.666;390;195;psychophysics;1431308;experimental_data;NULL;NULL;NULL;NULL;13_11_2020_13_27_25
176;22;6;sortStructureCont;query;5;1257;red;green,blue,red,orange,white;210,300,390,480,570;210,240,270,300,330;51;3;3;v2dh8a69mhuhkqz;true;16.666;390;195;psychophysics;1433570;experimental_data;NULL;NULL;NULL;NULL;13_11_2020_13_27_25
177;12;6;sortStructureCont;bars;3;1002;red;red,orange,white;300,390,480;270,300,330;32;1;1;v2dh8a69mhuhkqz;true;16.666;390;195;psychophysics;1436585;experimental_data;NULL;NULL;NULL;NULL;13_11_2020_13_27_25
177;12;6;sortStructureCont;query;3;710;red;red,orange,white;300,390,480;270,300,330;49;1;1;v2dh8a69mhuhkqz;true;166.822;390;195;psychophysics;1438301;experimental_data;NULL;NULL;NULL;NULL;13_11_2020_13_27_25
178;0;6;sortStructureCont;bars;1;635;red;red;390;210;32;1;1;v2dh8a69mhuhkqz;true;16.666;390;195;psychophysics;1440947;experimental_data;NULL;NULL;NULL;NULL;13_11_2020_13_27_25
178;0;6;sortStructureCont;query;1;419;red;red;390;210;49;1;1;v2dh8a69mhuhkqz;true;16.666;390;195;psychophysics;1442373;experimental_data;NULL;NULL;NULL;NULL;13_11_2020_13_27_25
179;15;6;sortStructureCont;bars;4;1400;white;red,orange,white,saddlebrown;210,300,390,480;240,270,300,330;32;3;3;v2dh8a69mhuhkqz;true;16.666;390;195;psychophysics;1445785;experimental_data;NULL;NULL;NULL;NULL;13_11_2020_13_27_25
